char,mean_log_rt,mean_rt_ms,sd_rt_ms,kept_trials,geom_rt_ms,total_trials,correct_trials,acc_rate,strokes,log_freq,phon_family_size,pron_match
一,6.457254776530923,647.3103448264623,119.31262265526253,29,637.3090970193891,29,29,1,1,4.063231477357275,NA,NA
丁,6.244477912073212,521.0903703703397,81.49703608137797,27,515.1601957859475,29,27,0.9310344827586207,2,1.0968196703598594,NA,NA
七,6.326650810189921,568.0660344827439,105.08773995209376,29,559.2803176634075,29,29,1,2,2.3621741746022584,NA,NA
万,6.300331977331404,554.567758621102,111.7988876974759,29,544.7527256670801,29,29,1,3,2.5541411004132026,NA,NA
丈,6.381493798579323,611.7956896555197,189.08105713510793,29,590.8095993503605,29,29,1,3,0.10527168310679376,NA,NA
三,6.348013599387336,579.2598275859225,107.77948351618801,29,571.356637865511,29,29,1,3,3.2641101965308663,NA,NA
上,6.303234163233793,557.1037931033202,128.97213386523123,29,546.3359957085145,29,29,1,3,3.46607127208688,NA,NA
下,6.359916490715242,587.030535714054,108.38690461190772,28,578.1980694703213,29,28,0.9655172413793104,3,3.168249092701311,NA,NA
不,6.392063583506276,609.8489285716392,131.8944793462235,28,597.0874490620438,29,28,0.9655172413793104,4,4.257686027394527,NA,NA
与,6.26465656443261,530.2214285717366,70.31048379284464,28,525.6610242633238,29,29,1,4,2.9588039449212604,NA,NA
丑,6.28996786701833,548.0356896548263,118.74349266875873,29,539.1360047589446,29,29,1,4,1.7481593316013768,NA,NA
专,6.286109430925413,542.8757407404203,87.85470758963842,27,537.0597909840818,29,27,0.9310344827586207,4,1.0057251846357056,NA,NA
且,6.3337301037981915,581.6708928570341,168.4247802817737,28,563.2536749286365,29,28,0.9655172413793104,5,1.6082060781848453,NA,NA
世,6.325143620014593,563.5148275863136,76.73309325722177,29,558.4380107811498,29,29,1,5,1.5513109038725272,NA,NA
丘,6.333001774061529,573.4610714282212,120.20808890366906,28,562.8435898845956,29,28,0.9655172413793104,5,0.3231489300840411,NA,NA
丙,6.345751933091597,575.4439655170914,82.2422233452121,29,570.0658799967874,29,29,1,5,0.4357169882208347,NA,NA
业,6.320200180587394,560.0421428569982,72.90870651699797,28,555.6842185116494,29,28,0.9655172413793104,5,0.771940064202349,NA,NA
丛,6.5215271679264895,697.7838636375758,181.30965827393382,22,679.6154801925773,29,24,0.8275862068965517,5,0.9623219727295845,NA,NA
东,6.282226848346344,540.0329310347182,76.06139786768136,29,534.9786547017566,29,29,1,5,1.6307796432757182,NA,NA
丝,6.355903118469661,580.5010344830829,76.26991471146147,29,575.8821957260765,29,29,1,5,1.7456220014292518,NA,NA
丢,6.3497848667261,586.5805769234352,156.64017538541336,26,572.3695600300942,29,28,0.9655172413793104,6,1.9301152820498337,NA,NA
两,6.380019949278736,605.1555172418743,159.5757156457159,29,589.9394764081318,29,29,1,7,3.1248668657823306,NA,NA
严,6.360407017599727,589.4065517238992,120.94096500483339,29,578.4817607413634,29,29,1,7,0.8049431896636015,NA,NA
丧,6.354380066760667,580.1134482752029,76.20509899346536,29,575.0057649578067,29,29,1,8,0.2847915559501461,NA,NA
个,6.423015365237131,632.9429629633368,167.17460996148915,27,615.8573519685824,29,28,0.9655172413793104,3,3.8830570730065146,NA,NA
丫,6.431649104858031,631.1333333337582,125.75710311719142,27,621.1975236430054,29,28,0.9655172413793104,3,0.9392496068345688,NA,NA
中,6.319431624406959,567.4589655172953,132.73650686943952,29,555.2573080444951,29,29,1,4,3.2826785425740854,NA,NA
丰,6.384549293600238,603.8766071424991,130.8421092952348,28,592.6175758644895,29,28,0.9655172413793104,4,0.9168328038940173,NA,NA
串,6.315717341893681,556.548392857344,63.60658069367226,28,553.1987509328327,29,29,1,7,1.215145630799602,NA,NA
临,6.381441596031456,598.754655172672,103.60810514450601,29,590.7787583889651,29,29,1,9,1.2434324570971511,NA,NA
丸,6.423129440955709,640.5374999995856,208.58897876922944,28,615.9276103458611,29,28,0.9655172413793104,3,0.436893809463851,NA,NA
丹,6.348892990214441,577.6459259260198,88.15107706935241,27,571.8593046397368,29,28,0.9655172413793104,4,0.9675573359128723,NA,NA
为,6.296410863299776,549.166551724239,92.05975033851432,29,542.6208704658337,29,29,1,4,3.2155556397866074,NA,NA
主,6.346698852886598,587.9001785717571,177.8984116974986,28,570.6059423205091,29,29,1,5,1.772312169746137,NA,NA
丽,6.355459206173626,581.8401851849221,90.66660812991071,27,575.6266112710643,29,28,0.9655172413793104,7,0.9388798201197006,4,match
举,6.40123968320138,627.7825000000273,213.22166486013063,28,602.5915977085999,29,28,0.9655172413793104,9,1.396056302868221,NA,NA
乃,6.352724225017214,580.8850000005914,95.81369963846058,27,574.0544342533736,29,27,0.9310344827586207,2,1.3225252611361404,NA,NA
久,6.3359505627434585,568.5912499996537,70.91002071771707,28,564.5057461615327,29,28,0.9655172413793104,3,2.3902999727152596,NA,NA
么,6.732720934081178,894.1714999996825,334.49640256935436,20,839.4281901960643,29,22,0.7586206896551724,3,2.4876058038279063,NA,NA
义,6.410702155605901,620.947857142435,144.7025219608326,28,608.3206669051323,29,28,0.9655172413793104,3,0.7030677233802329,NA,NA
之,6.349473983533986,581.4125862063536,111.42641641155724,29,572.1916476106265,29,29,1,4,2.9797450828483902,NA,NA
乌,6.4937068317580975,701.4637037046598,280.22844438664544,27,660.9689283804523,29,27,0.9310344827586207,4,0.8776937790789763,NA,NA
乍,6.419331394785896,627.3531481482127,160.0604902973281,27,613.5927256511964,29,27,0.9310344827586207,5,0.1751347586588441,NA,NA
乎,6.284784143986152,542.3906896557561,87.63454936455767,29,536.3485040912107,29,29,1,5,0.3597975510344005,NA,NA
乏,6.368144823416356,590.9694444442915,102.68859795919472,27,582.975302932522,29,28,0.9655172413793104,5,0.48583495268322063,NA,NA
乐,6.2548485810965335,526.1134482760922,81.58864964029749,29,520.5305506246517,29,29,1,6,2.028196573120829,NA,NA
乒,6.529424249109451,703.1884615384984,164.55673506558867,26,685.0037064403771,29,26,0.896551724137931,6,0.03702787975577494,NA,NA
乔,6.394314102820832,605.3371428568267,100.8684559719889,28,598.4327191089515,29,29,1,6,1.8597001738277883,NA,NA
乖,6.440571998226281,655.1005357142132,232.43605468487664,28,626.7652058839581,29,29,1,8,1.6317582142380824,NA,NA
乘,6.325516152511986,564.5957407406424,87.6539483146935,27,558.6460858428998,29,29,1,10,1.3223723048797187,NA,NA
乙,6.3089938399749474,556.0805172409906,92.52237646647089,29,549.4917939004082,29,29,1,1,1.1795977458217994,NA,NA
九,6.3720902623260205,598.1803571428941,136.9152261505823,28,585.2799397884567,29,29,1,2,1.8678503467496617,NA,NA
乞,6.465861409587531,665.3048275854911,206.94212489095344,29,642.8178544834584,29,29,1,3,0.12502558681994894,NA,NA
也,6.391455908765504,612.8649999991455,161.05627103261247,28,596.7247243217104,29,28,0.9655172413793104,3,3.6734744572364852,NA,NA
习,6.333885001559654,573.2432758618224,118.1998421354717,29,563.3409284195294,29,29,1,3,0.4730195783660997,NA,NA
乡,6.300547063357495,551.7498148149741,93.27861478350846,27,544.8699069676244,29,28,0.9655172413793104,3,0.8237024020560482,NA,NA
书,6.314161717474419,563.4805172411845,122.7263105407687,29,552.3388504616728,29,29,1,4,2.2348373185489967,NA,NA
买,6.314715003088884,559.7542592597763,92.34116082328403,27,552.6445361598952,29,27,0.9310344827586207,6,2.898766251183764,NA,NA
乱,6.319212339196019,561.3212068960662,86.11565726543171,29,555.1355616776515,29,29,1,7,1.9873887103345644,NA,NA
乳,6.369278186856906,587.3417857139054,68.63099416125993,28,583.6364003886879,29,29,1,8,0.6039018317316713,NA,NA
了,6.373347637586981,601.2344827580442,150.82409609569837,29,586.0163191610686,29,29,1,2,4.434945585298105,NA,NA
予,6.393485578134315,608.3505357140551,121.0240914439106,28,597.9371081692502,29,29,1,4,0.652391404017054,NA,NA
争,6.366484423294395,591.0687931029566,114.57421152179057,29,582.0081338344784,29,29,1,6,1.3229858713751201,NA,NA
事,6.40695648002582,618.9058620692991,149.85279107464984,29,606.0463571106392,29,29,1,8,3.162903704655852,2,mismatch
二,6.548238932089691,720.7341071424133,186.4804863988839,28,698.013841007697,29,28,0.9655172413793104,2,2.4808280182818625,NA,NA
于,6.358052193690241,607.8060714286793,253.3506102520549,28,577.1211406990137,29,29,1,3,2.370538809728739,NA,NA
亏,6.364214202028589,599.4775862067933,173.56864652949452,29,580.6883452650522,29,29,1,3,1.1857262589532873,NA,NA
云,6.277711457279014,542.4587931031866,114.58414373518858,29,532.5684624384793,29,29,1,4,1.7430116868115078,NA,NA
互,6.323634337160978,562.2408928568329,75.6056504113764,28,557.5958055894721,29,28,0.9655172413793104,4,1.3186788450871036,NA,NA
五,6.33767532578735,583.1264285717151,167.98945336658772,28,565.480224941496,29,28,0.9655172413793104,4,2.7158850658019373,NA,NA
井,6.385065046712902,616.6605172414727,228.5290387858549,29,592.9232990559278,29,29,1,4,1.07651665392256,NA,NA
亘,6.50882675362984,702.2132142856491,249.27222936684828,28,671.0386618913982,29,28,0.9655172413793104,6,0.031044716583705063,NA,NA
亚,6.394439697307804,619.2946551720142,200.88261115877435,29,598.5078836793239,29,29,1,6,1.3438987448862287,NA,NA
些,6.373434792012812,590.1287037042656,70.43101896168992,27,586.0673953026163,29,27,0.9310344827586207,8,2.484705039241088,NA,NA
亟,6.76826981992529,901.3840000003191,251.8977482483806,20,869.8056709072587,29,22,0.7586206896551724,9,0.034026523775110236,NA,NA
亡,6.384755001150801,616.687068965545,205.9975999710014,29,592.7394943137842,29,29,1,3,0.7789539529040592,NA,NA
交,6.333565234618665,577.1722413791263,160.41154741495785,29,563.1608194121026,29,29,1,6,1.9689744038088315,NA,NA
亦,6.368543137533143,586.7985185186963,65.64907692830757,27,583.2075564772806,29,28,0.9655172413793104,6,1.6418616296677853,NA,NA
产,6.4335790759352784,639.2991379316444,170.43915804395957,29,622.3975745561764,29,29,1,6,0.8882300556623572,NA,NA
亨,6.57286123420081,734.77115384571,176.50441196889702,26,715.413884171441,29,29,1,7,0.15980773296943054,NA,NA
亩,6.422530600441219,623.9034482758531,111.81782510358262,29,615.5588783556395,29,29,1,7,0.650948290373242,NA,NA
享,6.537411227088299,726.7794230765822,270.0836899053505,26,690.4967230597722,29,27,0.9310344827586207,8,1.6474074229443272,NA,NA
京,6.318297330044478,560.1200000005806,81.97323780715803,28,554.6278398788406,29,28,0.9655172413793104,8,1.0735387315226816,NA,NA
亭,6.390358683690848,603.6829310347556,102.87017846308841,29,596.0703420594815,29,29,1,9,0.5556384879475538,NA,NA
亮,6.293268193785935,545.1981034482883,70.97033114321387,29,540.9182691565546,29,29,1,9,2.03281813601488,NA,NA
亲,6.381683143987744,613.7748275858588,198.96133504734948,29,590.9214770266763,29,29,1,9,2.3024746594022547,2,match
人,6.267336222031821,536.420357142968,111.42487626167846,28,527.0715047800135,29,28,0.9655172413793104,2,3.797586744228063,NA,NA
亿,6.391486715199158,609.8858620690254,145.63757669834752,29,596.7431075654995,29,29,1,3,1.70005698488918,3,mismatch
什,6.436602985574791,638.6771999993733,153.06831162283478,25,624.2824970628396,29,25,0.8620689655172413,4,1.1004119045273273,2,mismatch
仁,6.398394775472649,620.1198076917653,193.09466954035486,26,600.8797164417263,29,26,0.896551724137931,4,0.5627447714583476,NA,NA
仄,6.535678678501851,713.4363636367805,218.80799466963492,22,689.3014396805453,29,23,0.7931034482758621,4,0.009535876619218136,NA,NA
仅,6.473518360134765,676.9948000001988,228.27539266132348,25,647.7587710429793,29,26,0.896551724137931,4,1.8671078822568725,NA,NA
仆,6.580469946567897,765.7774999989894,328.09554333804465,26,720.8780238119157,29,28,0.9655172413793104,4,0.23340227781189518,6,mismatch
仇,6.349255559708089,577.6667241376388,84.14424471300578,29,572.0666809701517,29,29,1,4,0.7075105629602094,NA,NA
今,6.360709961021807,600.0080357149044,191.277810610166,28,578.6570345332536,29,28,0.9655172413793104,4,1.731575873136929,NA,NA
介,6.386760414835347,607.1184482755549,147.3220528184708,29,593.9293749096898,29,29,1,4,0.7757269237808101,NA,NA
仍,6.41891131966184,631.3231034475068,187.6875578228175,29,613.3350247415086,29,29,1,4,1.7646311183119427,3,mismatch
从,6.3600673465366295,588.0641379309346,122.5241651014946,29,578.285300594512,29,29,1,4,2.9784884782354397,NA,NA
仓,6.372954048951621,591.4717241387613,88.02989188242447,29,585.7857151822411,29,29,1,4,0.4439041742213527,NA,NA
仔,6.405262704858736,615.8830357140312,131.5142838697801,28,605.0207196856661,29,28,0.9655172413793104,5,0.9647733121553677,6,match
仕,6.619795431423778,786.8618518522901,278.4560476613461,27,749.7916976020165,29,27,0.9310344827586207,5,0.0924399113311414,2,match
他,6.511986295019972,700.0401851850663,225.37941936605338,27,673.16218923775,29,27,0.9310344827586207,5,3.658065808915188,8,mismatch
仗,6.383412253488277,599.9426785712786,104.8181713772971,28,591.9441288503689,29,28,0.9655172413793104,5,1.1552965543538112,2,match
付,6.38068688997054,603.0637931033251,136.47875606305877,29,590.3330622852789,29,29,1,5,1.6325089185300188,NA,NA
仙,6.437570359249919,645.8029310340721,192.49559145923922,29,624.8867037160278,29,29,1,5,1.5011167990000676,NA,NA
仞,6.7237664703270985,865.7179545450639,262.63463394887765,22,831.9451143593367,29,24,0.8275862068965517,5,0.009535876619218136,4,match
仟,6.622622447968292,774.3745454548548,201.21887983470884,22,751.9143701375606,29,23,0.7931034482758621,5,0.031044716583705063,7,match
代,6.4787484449513215,669.0557142859252,181.12352557848638,28,651.1554791492165,29,29,1,5,1.7752928928855516,NA,NA
令,6.310414794524143,560.867678571527,121.42688568678838,28,550.2731517702358,29,28,0.9655172413793104,5,2.1337872793259733,NA,NA
以,6.368602719721684,590.4546551728594,97.73928071429879,29,583.2423062950941,29,29,1,5,2.574326487612024,NA,NA
仨,6.521988009074788,719.1880952376994,311.39676977499744,21,679.9287471484786,29,25,0.8620689655172413,5,0.2864564697469829,2,mismatch
仪,6.429786036102957,634.6298214283714,145.9147861065717,28,620.0412673728913,29,29,1,5,0.5429125260003509,3,mismatch
们,6.591977941988321,743.9621739131629,152.37355323238012,23,729.2218028107781,29,24,0.8275862068965517,5,2.4914645113881964,4,mismatch
仰,6.498052139765672,682.7889655176701,178.62170855904816,29,663.8472911149909,29,29,1,6,0.22002959399244498,3,mismatch
仲,6.498124326831472,685.0368965516222,185.7364308319174,29,663.895214032762,29,29,1,6,0.8183512796936777,9,mismatch
件,6.521046450274666,711.9544444442272,266.2492626219024,18,679.288855548202,29,18,0.6206896551724138,6,2.6777658608269963,NA,NA
价,6.554357259816768,738.264565217357,262.53396709178554,23,702.2976098326214,29,23,0.7931034482758621,6,1.693586263959053,6,mismatch
任,6.385037157711812,603.4563793101959,122.9877877863091,29,592.9067632479789,29,29,1,6,1.6733702307397058,5,mismatch
份,6.5009482761427595,691.7160416669817,219.15409935249102,24,665.7726701379572,29,25,0.8620689655172413,6,2.3952260655732895,12,mismatch
仿,6.4865195809565925,679.5677777775115,204.74473121570276,27,656.2354097892529,29,27,0.9310344827586207,6,0.2979573758101091,12,mismatch
企,6.459443590857667,651.8882758620454,158.94476594693967,29,638.7055760606422,29,29,1,6,1.564409198379426,NA,NA
伊,6.413337050727358,615.9555172413479,88.32968044271836,29,609.9256416040762,29,29,1,6,1.3602127184636363,NA,NA
伍,6.369600183076,588.1896428569952,71.86030863615963,28,583.8243593623538,29,29,1,6,0.21808890286084492,2,match
伏,6.404669028919408,612.5463793105044,102.84529466828442,29,604.6616400406132,29,29,1,6,0.7030677233802329,NA,NA
伐,6.563021704962249,728.595689655001,193.61767648570583,29,708.4090669075729,29,29,1,6,1.2419596606165717,NA,NA
休,6.385684675569221,602.2142592593093,111.54491291626303,27,593.290805288582,29,27,0.9310344827586207,6,1.2143616194706983,NA,NA
众,6.3598877250226264,584.4369642854114,86.30195881287396,28,578.1814374416011,29,28,0.9655172413793104,6,1.1714309744204667,NA,NA
优,6.512690664763581,687.0656521734322,145.77228759351,23,673.6365113458507,29,24,0.8275862068965517,6,1.0304256454923626,5,mismatch
伙,6.437328593106779,645.5714285714306,190.19637603104704,28,624.7356455288843,29,28,0.9655172413793104,6,1.0824155241890532,2,match
会,6.357851977690246,589.6441379313147,151.59063883469514,29,577.0056033793063,29,29,1,6,3.6697591613711364,NA,NA
伞,6.461492076049044,668.1071153847935,241.04911444806908,26,640.015295987793,29,27,0.9310344827586207,6,0.5574229815135743,NA,NA
伟,6.385660414172787,605.4833928574961,137.77237716366517,28,593.2764113997628,29,28,0.9655172413793104,6,0.327726651642141,7,mismatch
传,6.348281187871413,574.2513793099557,56.94393610161935,29,571.5095467795244,29,29,1,6,1.9899661252858545,3,mismatch
伤,6.441149500625454,646.7182758623464,185.01129617632145,29,627.127268830122,29,29,1,6,2.3977455749444228,NA,NA
伦,6.453661717517717,650.6442857147206,164.46717889781198,28,635.0233167549678,29,28,0.9655172413793104,6,0.7056157174760032,8,match
伪,6.487434578108306,676.2031034482092,187.446411287629,29,656.836138110503,29,29,1,6,0.9986777339106863,1,mismatch
伯,6.445364814404037,645.3906896541622,173.75547208581884,29,629.7763865559208,29,29,1,7,0.8682034556371161,14,mismatch
估,6.459693920175445,662.0017857142092,219.41732272409564,28,638.8654828055965,29,28,0.9655172413793104,7,0.842147244085764,14,mismatch
伴,6.381425884090246,598.9343103438814,105.97916065954718,29,590.769476180766,29,29,1,7,1.6082060781848453,6,match
伶,6.533755463182169,715.3829166662676,222.5047301452829,24,687.9770385543604,29,26,0.896551724137931,7,0.19200959265367015,16,mismatch
伸,6.425238024267455,630.6079310345028,152.89187739195927,29,617.2277152343136,29,29,1,7,1.115969779155345,8,match
伺,6.630035202601971,808.8455769231626,353.7364390263797,26,757.508836454513,29,27,0.9310344827586207,7,0.02804229509074957,5,mismatch
似,6.453993177962161,656.4528571425834,208.52931060283328,28,635.2338367533707,29,28,0.9655172413793104,7,1.7887465738346036,3,mismatch
伽,6.590503678844999,761.1916666662797,275.3837308218651,24,728.1475300585228,29,26,0.896551724137931,7,0.4921035633051444,9,match
但,6.453322470300751,648.6576785712984,142.64213636118953,28,634.8079233999144,29,29,1,7,3.0726885671581123,8,match
位,6.423140861602625,646.3980000000191,244.59735712922657,25,615.934644677793,29,25,0.8620689655172413,7,2.5476670411451265,NA,NA
低,6.558841791055146,721.5526923080815,171.4733614779977,26,705.454157931717,29,27,0.9310344827586207,7,2.0698500629461596,9,mismatch
住,6.497873967268242,691.7748275870614,223.8972421366706,29,663.7290223216563,29,29,1,7,2.7525348157936818,7,mismatch
佐,6.686081817949069,832.6137931038711,269.31694795988045,29,801.1769371148575,29,29,1,7,0.5465920123199435,1,mismatch
佑,6.5561269058404426,728.5661111113773,247.73205679942012,27,703.5415283283819,29,27,0.9310344827586207,7,0.23530114031999072,1,match
体,6.408659547990517,622.5414814813511,166.34471713598168,27,607.0793746464079,29,27,0.9310344827586207,7,1.4372383005420066,NA,NA
何,6.681816447610517,837.6209090915775,288.2973993937789,22,797.766898480189,29,23,0.7931034482758621,7,1.7610177222688166,10,mismatch
佗,6.5915312484361515,745.703947368219,167.11377930012773,19,728.8961368752128,29,22,0.7586206896551724,7,0.012710712741786966,10,mismatch
佘,6.659567236360951,838.7002631574074,332.5514704714927,19,780.2132161447416,29,24,0.8275862068965517,7,0.03702787975577494,NA,NA
余,6.430095993869901,638.2939285719206,186.18790490722105,28,620.2334837674824,29,29,1,7,1.045760964902633,NA,NA
佛,6.433744443987646,635.4192857143213,154.73050683595713,28,622.5005077415744,29,29,1,7,1.4546467155768792,7,mismatch
作,6.587721871371763,753.5076923077102,237.94639601495402,26,726.1247785747986,29,26,0.896551724137931,7,1.9099927782678268,NA,NA
佝,6.650378583816628,806.9840909092455,261.75271699390026,22,773.0769445614599,29,24,0.8275862068965517,7,0.018908444316327377,7,match
你,6.395784220556119,610.7677586210393,125.51018727573707,29,599.3131326599114,29,29,1,7,4.340136606811304,5,mismatch
佣,6.431391051186609,632.1287037036295,126.66702326112059,27,621.037242022871,29,28,0.9655172413793104,7,0.0683714180326432,3,match
佩,6.497342261858902,674.7058928573265,132.39743646129608,28,663.3762078151552,29,28,0.9655172413793104,8,0.4213241774638618,NA,NA
佬,6.48016645782885,667.6914814815856,152.365830908858,27,652.0794809723365,29,27,0.9310344827586207,8,1.0393387556041664,2,match
佯,6.646270196107913,787.1087500002549,170.4588846306463,28,769.9073601436087,29,28,0.9655172413793104,8,0.05720951250779035,12,match
佰,6.723674074618133,872.9580952386605,293.3372953894104,21,831.8682497517096,29,24,0.8275862068965517,8,0.021974455110060194,2,match
佳,6.543892532317959,721.4097826084699,229.40106039324303,23,694.9865774230682,29,24,0.8275862068965517,8,2.0043213737826426,NA,NA
使,6.429882452519752,636.9651785716208,172.69939190376036,28,620.1010524122399,29,28,0.9655172413793104,8,2.252993244215142,1,mismatch
侃,6.68378631967033,835.1167999995223,295.08643078745797,25,799.3399460463025,29,27,0.9310344827586207,8,0.13691072748137587,NA,NA
侄,6.582171248799576,752.1666666670244,240.33705453896474,27,722.1054990597147,29,27,0.9310344827586207,8,0.034026523775110236,5,mismatch
侈,6.626939293747297,769.5733333324758,160.18010592982722,21,755.1672846260055,29,23,0.7931034482758621,8,0.006380458549693074,4,mismatch
例,6.532685420051416,700.464583333395,138.3868720833034,24,687.2412671738992,29,26,0.896551724137931,8,0.8318377926551032,7,mismatch
侍,6.51215590294103,685.7421153845464,141.09996097904417,26,673.2763725601258,29,28,0.9655172413793104,8,0.13928073271852426,8,mismatch
供,6.426744329052357,626.5785714285219,109.26142081043582,28,618.1581488775437,29,28,0.9655172413793104,8,1.2998862965521374,7,match
依,6.457395345537141,649.682586206809,132.74801923251715,29,637.3986892226069,29,29,1,8,1.4761429911757233,4,match
侠,6.425701291966183,623.9061111116705,95.04951040176472,27,617.5137231415385,29,28,0.9655172413793104,8,0.9630224173184717,7,mismatch
侣,6.466816919412265,662.8605357141013,181.46289063769746,28,643.4323667984547,29,29,1,8,0.0950297966484517,3,match
侦,6.568439434509262,733.7886538460143,193.10296553696628,26,712.2574509797016,29,26,0.896551724137931,8,0.2677582166513658,3,match
侧,6.3941297556995895,604.2442592592862,85.868707111221525,27,598.3224099278286,29,27,0.9310344827586207,8,1.32145136260927,5,mismatch
侨,6.6016933820986745,765.5547999997068,245.81955015135838,25,736.3410408299343,29,27,0.9310344827586207,8,0.26601990885349813,7,match
侬,6.66452300827044,833.6522916661567,315.6813359259428,24,784.0893716228513,29,27,0.9310344827586207,8,0.3612177125816818,4,match
侯,6.508777612133065,706.7676923086248,262.62731165399777,26,671.0056868573869,29,27,0.9310344827586207,9,0.6671820180740723,NA,NA
侵,6.451502371969654,640.2062500000362,92.28187460653258,28,633.6535614028159,29,28,0.9655172413793104,9,0.19407010762109916,NA,NA
便,6.508190117488713,692.4274074073679,201.5014549260487,27,670.6115903861464,29,27,0.9310344827586207,9,2.1665414115952335,NA,NA
促,6.432345786906925,639.5040740737675,180.12861330419838,27,621.6304515956009,29,27,0.9310344827586207,9,1.4177506149854648,2,mismatch
俄,6.53346412610548,715.3299999996914,231.1237290515812,24,687.7766345290977,29,26,0.896551724137931,9,1.4617085700643662,7,mismatch
俊,6.546803035468542,717.2699999997848,196.11207089370936,26,697.0122845297436,29,27,0.9310344827586207,9,0.27806733088866253,11,mismatch
俏,6.471469583960612,673.0424999998273,227.93638088055812,28,646.4330168567986,29,28,0.9655172413793104,9,0.3307383581788762,16,mismatch
俑,6.601869761557351,767.0522413791272,238.17968308217476,29,736.4709277184701,29,29,1,9,0.0924399113311414,11,match
俗,6.453633249193659,641.9130357153377,101.32415189933711,28,635.005238962726,29,28,0.9655172413793104,9,0.9520170900474263,4,mismatch
俚,6.623230582673315,782.6767391314316,239.8043789104563,23,752.3717744288624,29,24,0.8275862068965517,9,0.021974455110060194,9,match
保,6.41608681346199,620.1121153846279,111.79136905082423,26,611.6051004026391,29,26,0.896551724137931,9,1.3069287313999993,NA,NA
俞,6.667087409615033,818.7633333331879,253.8850891974482,24,786.1026718132653,29,27,0.9310344827586207,9,0.06284511327705045,NA,NA
信,6.378473339838592,607.4155555558556,176.129561078003,27,589.0277756490381,29,27,0.9310344827586207,9,2.8739261568713683,NA,NA
俩,6.5128509152793965,701.6260344828559,229.4054858967791,29,673.7444705942976,29,29,1,9,2.168314770345396,2,mismatch
俭,6.543949448991047,731.4868965518825,301.227069143059,29,695.0261348726241,29,29,1,9,0.018908444316327377,11,mismatch
修,6.48211737290683,684.5957142860777,265.9386190414821,28,653.352874401142,29,28,0.9655172413793104,10,1.6376558103884595,3,mismatch
俯,6.486326232145599,672.7202083339747,180.9997913009075,24,656.108539718522,29,26,0.896551724137931,10,0.07110842178244968,3,match
俱,6.411938812379958,615.9284482755968,99.20714476977338,29,609.0734161289398,29,29,1,10,0.6422369259221429,3,match
俺,6.474645665224091,662.0920370369505,145.00475639622988,27,648.4894045482907,29,29,1,10,1.8213209026193082,8,mismatch
俾,6.611363358738016,756.0747500000566,139.83203764269206,20,743.495979785778,29,22,0.7586206896551724,10,0.4784077543170611,7,mismatch
倌,6.674404077464604,805.5673684215395,160.22825211561513,19,791.8754168345575,29,22,0.7586206896551724,10,0.006380458549693074,5,match
倍,6.467413506972265,657.7905172413788,149.31209993887649,29,643.8163450711295,29,29,1,10,1.6876127799865919,8,mismatch
倏,6.701615369010721,851.9683333335487,310.5399227708665,24,813.719220885419,29,24,0.8275862068965517,11,0.009535876619218136,3,mismatch
倒,6.511079683454454,685.5014285714153,143.4464372541829,28,672.5521691789215,29,28,0.9655172413793104,10,2.311822918980124,1,match
倔,6.434873906682399,634.6768965519461,131.5372621251757,29,623.2039960496478,29,29,1,10,0.15757764052072906,4,mismatch
倘,6.457574065741596,648.15089285709,127.28835179217648,28,637.5126154268182,29,29,1,10,0.03702787975577494,12,mismatch
候,6.538329671105376,719.5741379314045,248.15349369756836,29,691.1311969636579,29,29,1,10,0.342600310415772,1,mismatch
倚,6.595382392090948,755.7433333330212,211.8255792053203,27,731.7086327945708,29,27,0.9310344827586207,10,0.10019817183413186,10,mismatch
借,6.432150687598146,632.6508928572146,135.50890131311107,28,621.509183754199,29,28,0.9655172413793104,10,1.8134281914366202,5,mismatch
倦,6.46472942040569,654.6034482759726,142.25649169282934,29,642.0906033241694,29,29,1,10,0.21023823616172682,7,mismatch
倩,6.598740478314669,750.990892856484,166.47905580715033,28,734.1699037412392,29,28,0.9655172413793104,10,0.08983448870862953,13,mismatch
倭,6.67538948446557,815.1594230770647,209.36748485553238,26,792.6561210067041,29,28,0.9655172413793104,10,0.021974455110060194,6,mismatch
债,6.511039876245232,685.2207142852959,145.0028271542967,28,672.5253972868709,29,29,1,10,1.1942506325965914,4,mismatch
值,6.431986399253055,634.9882758622118,149.9358009835104,29,621.4070854259536,29,29,1,10,1.7293608261591742,4,match
倾,6.45936481174774,643.6194444448877,84.6489486659435,27,638.6552613857534,29,29,1,10,0.9706675963132874,2,mismatch
假,6.418112221985156,624.605555555669,136.91685353308398,27,612.8451059207749,29,28,0.9655172413793104,11,2.065026692237724,5,mismatch
偌,6.6164996468422235,792.7207500001183,312.7841528136,20,747.3246134078684,29,21,0.7241379310344828,11,0.17298218950586897,4,match
偎,6.715007322606583,857.0671739130743,249.36025572679316,23,824.6898057543773,29,24,0.8275862068965517,11,0.031044716583705063,4,mismatch
偏,6.486544650957949,679.5001785713374,220.86457566192485,28,656.2518618180919,29,28,0.9655172413793104,11,1.360072477970273,9,mismatch
偕,6.663799777106575,808.5128260866113,217.06941891813983,23,783.5224987688041,29,24,0.8275862068965517,11,0.13455957742262487,4,mismatch
做,6.443074323995247,636.5175000002288,105.88130511290117,26,628.3355405347592,29,27,0.9310344827586207,11,3.306576671718265,NA,NA
停,6.440875720415538,636.086481482183,118.61673262768888,27,626.9555972960242,29,27,0.9310344827586207,11,2.2641226317556833,1,match
健,6.4541405418159314,642.4846428574134,103.09118140425046,28,635.3274541573413,29,28,0.9655172413793104,11,0.8341980945620742,4,match
偶,6.411694770741551,611.6429310348959,59.14722399436184,29,608.9247949901684,29,29,1,11,1.2080272893689892,6,mismatch
偷,6.554235179391125,713.8903846154958,132.08359580162602,26,702.2118782746645,29,26,0.896551724137931,11,1.9397263666844082,11,mismatch
偿,6.427489710553837,634.5266071424904,168.59114770268374,28,618.6190842917304,29,28,0.9655172413793104,11,0.39619934709573634,NA,NA
傅,6.489590415174316,665.0231034484137,96.22678661097972,29,658.2536972675993,29,29,1,12,0.10274233614457018,4,mismatch
傍,6.543325296055817,721.4181034486164,240.62781973608446,29,694.5924676219041,29,29,1,12,0.4686721911461471,10,mismatch
傧,6.5376530723936375,717.4493749990902,210.03276467976738,8,690.6637366455077,29,10,0.3448275862068966,12,0.009535876619218136,9,match
储,6.626758311866606,766.580624999692,143.59687412069022,24,755.0306253973928,29,26,0.896551724137931,12,0.46976312459806013,1,mismatch
催,6.489778214873693,669.2242857142923,124.68635709546244,21,658.3773287226718,29,23,0.7931034482758621,13,1.4621538258215794,3,match
傲,6.511533383994952,689.1898076920635,158.58904454893755,26,672.8573756925357,29,26,0.896551724137931,13,0.3896798432192493,7,mismatch
傻,6.518159625885298,705.5555555558043,252.4821039977931,27,677.3306957042795,29,27,0.9310344827586207,13,2.1455733357003117,1,match
像,6.476677459250866,663.7448000005727,146.19471505932228,25,649.8083408966418,29,25,0.8620689655172413,14,2.9301035492210885,2,match
僧,6.514694231128537,682.1560714284694,101.69029893221702,28,674.9875397878114,29,28,0.9655172413793104,14,0.1102866084035656,7,mismatch
僵,6.4728204916646375,656.3928571427283,118.75645227253969,28,647.3068783196017,29,28,0.9655172413793104,15,0.3695312559413108,2,match
僻,6.599003579137104,756.8214285717996,201.34949444333046,28,734.3630898593195,29,29,1,15,0.19200959265367015,10,mismatch
儒,6.479901220696599,658.985555554565,102.90404714959834,27,651.9065482159115,29,28,0.9655172413793104,16,0.22773248984662614,6,mismatch
儿,6.306474081424172,552.9658928574016,76.28778008793587,28,548.1089502019241,29,29,1,2,1.810599429193948,NA,NA
兀,6.385947544963318,601.891428571766,102.17845360498538,28,593.4467837831792,29,28,0.9655172413793104,3,0.0950297966484517,NA,NA
允,6.355104620444425,594.915740740694,203.92486863861785,27,575.4225384721481,29,28,0.9655172413793104,4,0.14851011061099875,NA,NA
元,6.396152204815719,617.1337931035382,171.39366816928936,29,599.5337110414988,29,29,1,4,2.6624490896467936,NA,NA
兄,6.486872884923934,674.3308695652372,168.44375150031217,23,656.4673013247291,29,25,0.8620689655172413,5,1.0265087505022792,NA,NA
充,6.478391488974384,680.0262499997581,230.23902348512925,24,650.9230867884072,29,24,0.8275862068965517,5,0.6094770164736192,NA,NA
兆,6.422536566303773,636.1541071424955,191.68664261671313,28,615.5625507062562,29,28,0.9655172413793104,6,0.39230995989281875,NA,NA
先,6.38524619722851,601.8015517238808,112.71873659172223,29,593.0307171463955,29,29,1,6,2.6228266817605888,NA,NA
光,6.327760352850819,572.1506896548996,126.62888816951033,29,559.9012074233965,29,29,1,6,1.9512597857579612,NA,NA
克,6.4616339767341,650.4767857146591,129.14844986436472,28,640.106121040656,29,28,0.9655172413793104,7,1.9114165096130362,NA,NA
免,6.564082755877669,745.4355555559052,276.03410274244777,27,709.1611239113361,29,29,1,7,1.3805187580704301,NA,NA
兑,6.362459719912262,593.1667857144654,142.4964555839272,28,579.6704311652796,29,29,1,7,0.7869146067301784,NA,NA
兔,6.378743215945975,602.3090740748986,140.70740802550898,27,589.1867616245636,29,28,0.9655172413793104,8,0.7931825057707669,NA,NA
兕,6.722577203240255,936.8233333341767,483.04431557367826,3,830.9562975169767,29,4,0.13793103448275862,8,0.006380458549693074,NA,NA
党,6.386289951131416,601.3253571428907,100.82691914411338,28,593.6500184147945,29,29,1,10,1.3514155527925111,12,mismatch
兜,6.564231633733684,720.671785714087,134.92645945662372,28,709.266710158565,29,28,0.9655172413793104,11,0.5731966208047685,NA,NA
入,6.342922881006868,583.4453448275183,161.5603683056418,29,568.4554130521024,29,29,1,2,1.8927422205840658,NA,NA
全,6.348457068983695,579.3541379303848,105.36616589072031,29,571.6100733543956,29,29,1,6,2.7388610698520885,NA,NA
八,6.359527534017769,589.0212068963905,121.78691888682188,29,577.9732191900806,29,29,1,2,2.080491199713847,NA,NA
公,6.367844651598772,604.8518965518714,211.09599625469548,29,582.8003364375537,29,29,1,4,1.09111450731066,NA,NA
六,6.361883271006525,597.532241380086,182.74703114027847,29,579.3363770713555,29,29,1,4,2.1264389100959056,NA,NA
兮,6.505898692935394,685.3226086953083,171.80935832663621,23,669.0766937437191,29,25,0.8620689655172413,4,0.7379873263334308,NA,NA
兰,6.373633981184395,602.0082758621206,159.0625431253032,29,586.1841452088507,29,29,1,5,1.0884975548633027,NA,NA
共,6.33934532295345,573.187413793268,97.342090906086,29,566.4253642849892,29,29,1,6,1.9063334253213804,NA,NA
关,6.434166791672761,631.8096296292734,113.44406053558235,27,622.7634749178826,29,27,0.9310344827586207,6,1.9256302168745163,2,match
兴,6.341655859665849,586.6050000000904,186.20864282589906,28,567.7356240026833,29,28,0.9655172413793104,6,0.8508544505992227,NA,NA
兵,6.348294448769609,576.7158928568617,78.45974868096786,28,571.5171255596931,29,28,0.9655172413793104,7,1.1404106143902815,NA,NA
其,6.288112110038053,542.6512068966584,71.51782508377829,29,538.1364271282425,29,29,1,8,2.229328274344004,NA,NA
具,6.333027593322664,571.095357143083,112.01189205949723,28,562.8581222778282,29,28,0.9655172413793104,8,1.7331266162654588,NA,NA
典,6.345286695776654,576.7793103452082,94.7589935291922,29,569.8007257620418,29,29,1,8,0.4675785104027364,NA,NA
兹,6.488170036194185,667.6789999997453,121.59210962362992,25,657.3193912438036,29,27,0.9310344827586207,9,0.8079542377957559,NA,NA
养,6.40527049319874,631.0512068967047,250.56537377625818,29,605.0254318110902,29,29,1,9,1.901957718021502,NA,NA
兼,6.390408483818822,603.825925925764,112.27499198388786,27,596.1000271779529,29,27,0.9310344827586207,10,1.0563521076321292,NA,NA
兽,6.521869066333805,702.5317241379466,195.18278610009622,29,679.8478793690323,29,29,1,11,1.1582146861850866,NA,NA
冀,6.70264070812357,847.8732000004525,285.6669434444263,25,814.5539869154665,29,27,0.9310344827586207,16,0.0950297966484517,2,mismatch
内,6.277607540268793,540.29535714297,96.5324892623799,28,532.5131223915606,29,29,1,4,2.3110055947525017,NA,NA
冈,6.526306342866589,710.8298076924178,213.56739567857647,26,682.8712552266824,29,26,0.896551724137931,4,0.30280696274142077,NA,NA
冉,6.459507734986366,653.6675862066935,154.8162361516425,29,638.7465465873094,29,29,1,5,0.021974455110060194,NA,NA
册,6.39341759597565,606.4644642846126,108.14412002996725,28,597.8964604955648,29,28,0.9655172413793104,5,0.9160536868177213,NA,NA
再,6.350556391210727,578.4539285723961,82.76558413611544,28,572.81132755523,29,29,1,6,3.2039970327720693,NA,NA
冒,6.412711839958215,626.91089285759,178.69229139464713,28,609.5444287061912,29,28,0.9655172413793104,9,1.5558100212299824,NA,NA
冗,6.545429356201688,734.1577586208175,295.3408764685981,29,696.0554705339756,29,29,1,4,0.034026523775110236,NA,NA
写,6.327164026345885,564.5956896550848,77.6998347205741,29,559.5674230253983,29,29,1,5,2.7200574597498726,NA,NA
军,6.378894123883053,601.3851851847181,134.56644494314136,27,589.2756812924871,29,28,0.9655172413793104,6,1.1052376007460227,NA,NA
农,6.330200642267499,572.397068965906,132.45894379719329,29,561.2691968804891,29,29,1,6,0.6740615971703152,NA,NA
冠,6.382619623697719,604.6935714285333,139.38029143494157,28,591.4751221983732,29,29,1,9,0.9741016136251149,NA,NA
冢,6.699168812250023,829.0119047622803,186.13625024086363,21,811.7308439545723,29,22,0.7586206896551724,10,0.02804229509074957,3,mismatch
冤,6.679594768315621,857.8053846153076,360.8156541390193,26,795.996483654872,29,27,0.9310344827586207,10,0.6415038556828313,NA,NA
冥,6.455038618500196,653.7241071420273,170.80957328554402,28,635.8982832165611,29,28,0.9655172413793104,10,0.4309775529446483,NA,NA
冬,6.323070318476401,564.0423214283354,96.76853553376614,28,557.2813998103801,29,28,0.9655172413793104,5,1.5908006093877796,NA,NA
冯,6.468269567345424,652.8603571432518,109.5205804687846,28,644.3677267060485,29,28,0.9655172413793104,5,0.49930209413332777,2,mismatch
冰,6.479181729282641,667.3865999995778,156.15378530160186,25,651.4376757468519,29,25,0.8620689655172413,6,1.6934560897797801,NA,NA
冲,6.417601453150726,625.1903448280806,138.1922178787826,29,612.532163667716,29,29,1,6,1.9007859252413035,9,mismatch
决,6.41871744726423,619.7764285708764,93.98162507368015,28,613.2161275355397,29,28,0.9655172413793104,6,1.2759996896673889,7,mismatch
况,6.534047975884433,713.6057407407486,220.56262971314536,27,688.1783100127973,29,27,0.9310344827586207,7,0.12017893847111538,1,mismatch
冶,6.715333095683854,864.9324000004306,289.0190945326152,25,824.9585112563244,29,25,0.8620689655172413,7,0.12981874384893433,NA,NA
冷,6.420140436713267,627.3479310339865,144.3751847891451,29,614.0893487599479,29,29,1,7,2.4927397211449223,16,mismatch
冻,6.392463467443386,603.9487500003847,95.46165214744593,28,597.3262624876178,29,28,0.9655172413793104,7,1.766122724804024,3,mismatch
冽,6.6583794243665695,803.6761363628237,223.10480606214682,22,779.2870197109437,29,23,0.7931034482758621,8,0.009535876619218136,7,match
净,6.404531607296234,615.7136206896814,128.24394560956304,29,604.5785521657336,29,29,1,8,1.4253124519881997,8,mismatch
凄,6.552671531927449,717.6032142857729,178.61376593077347,28,701.1147244566737,29,28,0.9655172413793104,10,0.060055364824844734,1,match
准,6.616017403424247,779.5913999995508,253.68631863238488,25,746.9643079164192,29,27,0.9310344827586207,10,1.824997454329465,15,mismatch
凉,6.365310531754751,587.8875862058946,94.8863409429223,29,581.3253202631146,29,29,1,10,1.598415122896868,7,mismatch
凋,6.563273212908331,735.1808928564911,225.3297339417599,28,708.5872598245046,29,28,0.9655172413793104,10,0.018908444316327377,7,mismatch
凌,6.48580293337919,664.155370370613,113.06472476607097,27,655.7652887482946,29,29,1,10,0.23340227781189518,5,match
减,6.619080085945656,772.3054000004345,204.68513768067942,25,749.2555292972535,29,26,0.896551724137931,11,1.3031009775745352,6,mismatch
凑,6.557036088300126,730.4567241376665,223.7867657912642,29,704.1814668119378,29,29,1,11,1.1314646774138508,2,mismatch
凛,6.527395938962499,704.2980769225485,217.83185151468467,26,683.6157145867395,29,26,0.896551724137931,15,0.018908444316327377,1,mismatch
凝,6.663790935426905,802.9006249998187,190.85232387619385,24,783.5155711444822,29,25,0.8620689655172413,16,0.26073901991041115,NA,NA
几,6.360585284844467,601.1084615383387,202.5997376288936,26,578.5848942833757,29,27,0.9310344827586207,2,2.919934064204264,NA,NA
凡,6.327284390017161,566.7418965516504,100.68474789950962,29,559.6347786682651,29,29,1,3,1.5609725079246635,NA,NA
凤,6.423934447853005,630.3676785719481,141.76241991074082,28,616.4236359456526,29,28,0.9655172413793104,4,1.6285891702771793,NA,NA
凭,6.461464872797062,648.4013793101847,110.59442204420174,29,639.9978857272325,29,29,1,8,1.7188478239330085,NA,NA
凯,6.579247360736488,744.2030769235324,205.38264008904554,26,719.9972270883385,29,27,0.9310344827586207,8,0.6429687608555517,5,match
凰,6.483251204748913,675.3255357141514,196.1598266683786,28,654.0940868199683,29,29,1,11,0.06284511327705045,5,match
凳,6.4861301562854194,663.0048148147326,100.58088222051529,27,655.9799052836917,29,27,0.9310344827586207,14,0.17940815151383588,7,mismatch
凶,6.324413050814903,572.6137931039541,151.6576604833335,29,558.03018216219,29,29,1,4,1.132653450656592,NA,NA
凸,6.465417541160864,652.6837500000526,122.37994597614731,28,642.5325912481104,29,28,0.9655172413793104,5,0.3498600821923312,NA,NA
凹,6.515528750030475,685.9218965523264,124.23633778990421,29,675.55106475174955,29,29,1,5,0.27975817280247295,NA,NA
出,6.267644219343768,531.9882758617622,72.85206228399403,29,527.2338663888756,29,29,1,5,2.8410917398929336,NA,NA
击,6.321009042474721,561.7263793107328,82.68552540996424,29,556.1338721267127,29,29,1,5,1.1624449142999778,NA,NA
函,6.450262171370374,654.1210344829916,213.34773806288845,29,632.8681909853244,29,29,1,8,0.13219562957342365,NA,NA
凿,6.539099184483401,710.7178000000821,181.02609575939098,25,691.663236345149,29,28,0.9655172413793104,12,0.15078713096536428,NA,NA
刀,6.227181489150651,509.21428571502173,55.35629680359254,28,506.32638406892835,29,29,1,2,1.8341484689779197,NA,NA
刁,6.446037174216923,644.4839655171362,139.60565939999816,29,630.1999652720415,29,29,1,2,0.18152918210650335,NA,NA
刃,6.4179925844888315,636.3382142860295,198.54871995276446,28,612.7717910523588,29,29,1,3,0.2589723311093857,NA,NA
分,6.345193834747478,580.3155357148914,119.0017643450368,28,569.747815936891,29,28,0.9655172413793104,4,2.8580915464693777,NA,NA
切,6.415422359887688,618.2501923079567,104.97119781659121,26,611.1988521891004,29,27,0.9310344827586207,4,1.6635614765760123,2,mismatch
刊,6.515433776122483,694.3396153841928,171.30648976649198,26,675.4869080737358,29,28,0.9655172413793104,5,0.5842294246682165,12,mismatch
刑,6.394348753525739,606.4894642855038,105.86584116098766,28,598.4534555837722,29,28,0.9655172413793104,6,0.39490675105402573,3,mismatch
划,6.429011248218085,629.6639655173539,118.24301223219231,29,619.5610529669847,29,29,1,6,1.2058266593593416,NA,NA
列,6.383683240018644,602.2220689658718,116.80423436322044,29,592.1045594723038,29,29,1,6,1.249457633305623,1,mismatch
刘,6.359226696714841,585.2343103447597,100.44889967538711,29,577.7993694372117,29,29,1,6,1.0428549774290576,NA,NA
则,6.357992293449681,584.3603703705509,99.14012605430572,27,577.0865720391992,29,27,0.9310344827586207,6,2.0084771042233203,NA,NA
刚,6.396382835827468,609.3057142852143,118.50792704927086,28,599.6719980538777,29,28,0.9655172413793104,6,2.9086634182859936,4,match
创,6.421838567208097,626.1698214288085,124.52549374214772,28,615.1330385195283,29,28,0.9655172413793104,6,1.4301218380988947,10,mismatch
初,6.468386166661432,654.8510869568765,119.76099219802948,23,644.4428639226288,29,23,0.7931034482758621,7,2.2910801129635265,NA,NA
删,6.491533256798407,680.625714285741,200.60819256832724,28,659.5338230880594,29,28,0.9655172413793104,7,0.8251468850792135,NA,NA
判,6.356979891692026,583.4725925931276,95.79147917892139,27,576.5026242241216,29,28,0.9655172413793104,7,1.3450638298222461,6,mismatch
刨,6.502640023768029,691.6801851846135,240.03229207720244,27,666.8999427331449,29,27,0.9310344827586207,7,0.1553056661596259,16,mismatch
利,6.3784692186510386,600.9470689651324,133.97623773541943,29,589.0253481601022,29,29,1,7,1.5808577175165663,NA,NA
别,6.292361664790357,544.2385714279329,65.98000078320624,28,540.4281332560947,29,28,0.9655172413793104,7,2.968212527739955,NA,NA
刮,6.426504201660349,636.3882758616588,177.8600937190248,29,618.0097299938383,29,29,1,8,1.5490437452177102,NA,NA
到,6.411622584436917,626.6332758621711,168.04861238231408,29,608.8808405458914,29,29,1,8,3.5091774992563347,1,mismatch
制,6.349977125060485,577.1234482760617,77.06287470134916,29,572.4796134273603,29,29,1,8,1.2313191924762914,NA,NA
刷,6.363555872137481,599.2833928568143,206.58751786400862,28,580.3061865769923,29,29,1,8,1.0197931789491554,NA,NA
券,6.7201726241041095,870.1109090912635,308.51300141114467,22,828.9605977115704,29,26,0.896551724137931,8,0.4587133719337438,1,mismatch
刹,6.4435329638763,634.8669642856114,93.21648722989238,28,628.6237863677961,29,28,0.9655172413793104,8,0.21808890286084492,3,mismatch
刺,6.343811983273911,574.2739285712554,85.409040292957485,28,568.9610527979728,29,28,0.9655172413793104,8,1.701275190893796,3,match
刻,6.437887921707668,643.3094827587223,189.5718410675347,29,625.085175785446,29,29,1,8,1.9352280587578694,10,mismatch
剁,6.519943350404573,701.9949999997916,212.29627155945198,29,678.5399452372664,29,29,1,8,0.33223641549144334,4,mismatch
剂,6.474365998692187,667.7251785713039,182.51869441290808,28,648.3080691234513,29,28,0.9655172413793104,8,1.0546513504417416,6,mismatch
剃,6.681553005248595,842.7866666672228,297.91017507523543,27,797.5567605650201,29,28,0.9655172413793104,9,0.5201952174943216,9,mismatch
削,6.406173747243009,611.840192307069,93.75231281861804,26,605.5721703639912,29,28,0.9655172413793104,9,0.9672108928215655,16,mismatch
剌,6.457584651089854,649.3440909100162,135.06270003068968,22,637.5193637555877,29,22,0.7586206896551724,9,0.15305227506710875,NA,NA
前,6.399242866054727,623.412857142592,211.35605974679027,28,601.3895330249658,29,28,0.9655172413793104,9,2.811116207618996,NA,NA
剐,6.751042237644883,892.3452173912214,296.9177954506128,23,854.9493587452336,29,24,0.8275862068965517,9,0.06561705572687246,8,mismatch
剑,6.436113192063988,654.1217857144168,277.8357405090292,28,623.9768024166083,29,29,1,9,1.9675886894181391,11,mismatch
剔,6.576792696376903,754.7920370367405,281.98132014449067,27,718.2320429096752,29,28,0.9655172413793104,10,0.12017893847111538,7,mismatch
剖,6.527465755719616,711.8006896552699,253.6196751030733,29,683.6634440851861,29,29,1,10,0.08983448870862953,8,mismatch
剜,6.806334363899415,924.2376470586378,193.96034958908575,17,903.552633902003,29,21,0.7241379310344828,10,0.031044716583705063,7,mismatch
剥,6.466080653890193,664.1177586211827,202.58824576614057,29,642.9588040863374,29,29,1,10,1.0219414245179956,NA,NA
剧,6.443971668559326,650.3487499999032,196.1013516188292,28,628.8996270686165,29,29,1,10,1.4031119381961064,4,mismatch
剩,6.417138981665667,623.8844642857201,137.10682256284355,28,612.2489505023927,29,28,0.9655172413793104,12,1.7546647660321202,1,mismatch
剪,6.474634703730599,690.1288888891127,300.58058809439285,27,648.4822961748628,29,28,0.9655172413793104,11,1.812933400541011,3,mismatch
副,6.377701687075322,594.2408928572487,86.04229586542967,28,588.5734260609182,29,28,0.9655172413793104,11,1.6825602115002516,8,mismatch
割,6.463619266527993,659.2427586210281,173.04511105491707,29,641.3781794742744,29,29,1,12,1.1683825600094535,5,mismatch
剿,6.620216538536812,787.0679629632493,282.17899579795466,27,750.1075067092338,29,27,0.9310344827586207,13,0.021974455110060194,1,mismatch
劈,6.682677701506596,843.3666666669285,312.76044572149465,27,798.4542742897258,29,29,1,15,0.8580557180503643,10,mismatch
力,6.2777362890161745,535.0301724142247,51.53824095973049,29,532.5816872027549,29,29,1,2,1.9908545507261777,NA,NA
劝,6.50582057777651,699.6489655175736,251.67449647404675,29,669.0244307527745,29,29,1,4,1.1909448811625445,NA,NA
办,6.341513145385839,582.0548275860759,159.3033487760753,29,567.6546058032324,29,29,1,4,2.287823220259471,NA,NA
功,6.4412416782553965,637.0963793100502,121.81889957808869,29,627.1850785997779,29,29,1,5,0.842147244085764,14,match
加,6.36207438073041,593.0223214288229,150.33866898312323,28,579.4471044666177,29,28,0.9655172413793104,5,2.2148496739102086,NA,NA
务,6.4473263453293805,648.1516071432955,184.33984768945342,28,631.0129247717008,29,28,0.9655172413793104,5,0.27293177938707075,2,match
劣,6.48676400676474,668.819807692057,146.1340392414513,26,656.395830264279,29,27,0.9310344827586207,6,0.3231489300840411,NA,NA
动,6.426001525257283,641.6683928570606,222.47016370493213,28,617.699149153075,29,29,1,6,2.085517123073347,NA,NA
助,6.454286337392796,648.8215517238513,152.55978321199507,29,635.4200888427177,29,29,1,7,1.6527403238353175,15,mismatch
努,6.39529713099338,613.2751724140495,149.29440629486027,29,599.0212845720292,29,29,1,7,0.26601990885349813,5,mismatch
劫,6.60247149420542,759.9468000001334,212.29865091730338,25,736.9142196782786,29,26,0.896551724137931,7,0.9359051028537956,NA,NA
励,6.4318013949236255,628.0477777783449,94.65254930041466,27,621.2921330584824,29,29,1,7,0.05438320830547721,2,match
劲,6.365961429725493,585.5891379308841,69.49108253553432,29,581.7038269056538,29,29,1,7,1.3564045040073491,NA,NA
劳,6.44124708049435,636.0717241375964,109.77332974770275,29,627.1884668125922,29,29,1,7,0.9168328038940173,NA,NA
势,6.503663432202507,695.7075862071662,241.9163555476623,29,667.5828031224318,29,29,1,8,0.9097592229595586,NA,NA
勃,6.558129413014254,722.351923076732,165.8243881278493,26,704.9517868410626,29,26,0.896551724137931,9,0.540141698835551,4,match
勇,6.426950254329626,628.92269230777,127.4237814240567,26,618.2854563732134,29,27,0.9310344827586207,9,1.4297635811987623,11,match
勉,6.527485486634371,699.4757142857713,166.17822793177302,28,683.6769335234011,29,29,1,9,0.02804229509074957,5,match
勋,6.661314635532865,830.713478261113,350.9666820708402,23,781.5777519196845,29,23,0.7931034482758621,9,0.10019817183413186,NA,NA
勒,6.475072620489484,663.5280434786995,155.6563665937294,23,648.766339629353,29,24,0.8275862068965517,11,1.072720342919356,4,mismatch
勘,6.747133375412395,896.5233333335316,316.45774044296553,24,851.6140024570558,29,25,0.8620689655172413,11,0.09760432887441087,5,mismatch
募,6.695079317917284,862.454199999572,338.53132494903787,25,808.4180537039027,29,26,0.896551724137931,13,0.0792174357465669,14,mismatch
勤,6.5303301280201795,694.2635714287513,118.16812989819111,28,685.6245179994078,29,29,1,13,0.9310253951126081,2,mismatch
勺,6.288723744608508,544.6880357144619,91.2491032266085,28,538.4656706487908,29,29,1,3,0.6587933767879285,NA,NA
勾,6.302189098476548,553.1789285719278,104.14392951297116,28,545.7653374531382,29,29,1,4,0.8576098737530498,NA,NA
勿,6.3837824124073785,630.7296551721383,310.64350143501485,29,592.1632828076661,29,29,1,4,1.2127866772765008,NA,NA
匀,6.350519494025147,577.8348275859707,78.08470140614851,29,572.7901928192836,29,29,1,4,0.05438320830547721,NA,NA
包,6.3456329471244475,578.7162068972751,108.87955117290275,29,569.9980541919566,29,29,1,5,2.2287962280994207,NA,NA
匆,6.421177629638701,640.0174137931979,222.0793519480018,29,614.7266083114868,29,29,1,5,0.015820634262069203,NA,NA
化,6.432845951936242,640.2516071430773,191.46500739679945,28,621.9414471767212,29,28,0.9655172413793104,4,1.215145630799602,NA,NA
北,6.377301346631404,595.7182142855432,97.8895377091954,28,588.3378434740156,29,28,0.9655172413793104,5,1.6886689359009102,NA,NA
匙,6.526203147062919,702.3498148151731,182.17363459925815,27,682.8007894146464,29,27,0.9310344827586207,11,0.49622369185226645,5,mismatch
匝,6.466595887504787,664.6389999999955,191.2560225407954,25,643.2901634314077,29,26,0.896551724137931,5,0.06561705572687246,NA,NA
匠,6.446777808796612,670.9616071429884,289.2041134837128,28,630.6668860459325,29,29,1,6,0.27634689625303327,NA,NA
匡,6.546287096459811,710.5403846152519,147.3340007465695,26,696.6527614565547,29,28,0.9655172413793104,6,0.14160653011825053,5,mismatch
匪,6.372738175195849,602.361071428967,166.7934442068224,28,585.6592730680849,29,28,0.9655172413793104,10,0.3246733501892453,18,mismatch
匮,6.5527567068780925,733.7935185201518,282.8988533386941,27,701.1744444120109,29,27,0.9310344827586207,11,0.012710712741786966,6,mismatch
匹,6.389033987306574,615.9166071428107,203.2904517261745,28,595.2812525999517,29,28,0.9655172413793104,4,1.1798102228787959,NA,NA
区,6.440278007889463,658.3570689654796,256.5347465764313,29,626.5809700530784,29,29,1,4,1.7964279249314794,NA,NA
医,6.4105325799037125,620.3408620690801,134.79137393621085,29,608.2175192468014,29,29,1,7,0.7768101070710125,NA,NA
匿,6.547397315222643,719.3716666665332,210.92248811834543,27,697.4266279245504,29,27,0.9310344827586207,11,0.07110842178244968,1,match
十,6.378447218355626,601.683793103503,132.73514174119907,29,589.0123895709839,29,29,1,2,2.401950815381403,NA,NA
千,6.339437783090794,578.8501724135829,134.71833374596704,29,566.477738473191,29,29,1,3,2.146608285869129,NA,NA
卅,6.743727798252141,868.882500000866,194.02360789730574,8,848.7186981503448,29,11,0.3793103448275862,4,0.05438320830547721,NA,NA
升,6.35469430098588,579.5691071434786,73.21509527355734,28,575.1864798407647,29,29,1,4,1.738038136609381,NA,NA
午,6.306725028238774,562.1992592593132,153.95780232751457,27,548.2465136568657,29,28,0.9655172413793104,4,0.3569814009931312,NA,NA
半,6.359394981599486,597.3599999999525,191.08253480050928,28,577.8966125194864,29,29,1,5,2.380652369368795,NA,NA
华,6.357383976646798,586.7417857138281,126.31168183978748,28,576.7356273343121,29,29,1,6,1.2474576958148116,5,match
协,6.552986458180442,726.1942307692955,214.80524375670254,26,701.3355586611841,29,28,0.9655172413793104,6,0.22963065550850545,NA,NA
卑,6.4337403031539715,644.043571428613,190.23201143746823,28,622.4979300758466,29,29,1,8,0.27975817280247295,NA,NA
卒,6.430834862324999,626.4622413787305,88.9625391729191,29,620.6919240661152,29,29,1,8,0.3154455182245843,NA,NA
卓,6.432759761323432,636.4525999997661,149.62388718796797,25,621.8878439723364,29,27,0.9310344827586207,8,0.24087360002058092,NA,NA
单,6.361067254273165,588.9543103454055,119.92428378149552,29,578.8638217261779,29,29,1,8,1.7592280405277525,NA,NA
卖,6.448531711683782,644.2156896554795,134.64833042115748,29,631.7739851065279,29,29,1,8,2.195029362170691,NA,NA
南,6.3513797824130585,581.9526785709063,103.2122902659315,28,573.2831695915676,29,28,0.9655172413793104,9,1.7926563883549593,NA,NA
博,6.561085655168965,731.4753448274414,214.1013745949233,29,707.0388784845211,29,29,1,12,3.365655717459243,4,mismatch
卜,6.438755657253891,640.2201724137472,150.92285553321474,29,625.6278198135986,29,29,1,2,0.5817107818990346,NA,NA
卞,6.633074248296767,802.3640384623117,313.52484989920214,26,759.8144420686087,29,28,0.9655172413793104,4,0.012710712741786966,NA,NA
占,6.307380827755124,554.587068965593,87.16557731565669,29,548.6061713741511,29,29,1,5,1.5414294614026223,NA,NA
卡,6.383054198407117,603.0237500008183,127.40739248661521,28,591.7322181873797,29,29,1,5,1.8481182688505509,NA,NA
卢,6.323381947234029,562.5587931035284,80.11860374135462,29,557.4550917829534,29,29,1,5,0.7664574641165554,NA,NA
卤,6.453524557932555,658.042777777893,186.07232362659897,27,634.9362231932688,29,27,0.9310344827586207,7,0.10274233614457018,NA,NA
卦,6.495413858401178,695.454642857171,270.8970267059225,28,662.0981835115286,29,28,0.9655172413793104,8,0.12260902357599006,14,mismatch
卧,6.404930853362771,613.2349999992997,110.47903698231617,29,604.8199759651426,29,29,1,8,0.3075816047506296,NA,NA
卫,6.31269139072339,566.559285714559,161.9935022797702,28,551.5273286215414,29,29,1,3,1.1498593019384142,NA,NA
卯,6.507242103211076,695.8818000004579,217.23395462362362,25,669.9761422782424,29,27,0.9310344827586207,5,0.08721334123161469,NA,NA
印,6.3801596321075476,604.262407407673,157.11889409495942,27,590.0218865785328,29,27,0.9310344827586207,6,1.3067701812810155,NA,NA
危,6.362868937328269,600.1150000000441,183.90429970486687,29,579.9076909433626,29,29,1,6,0.20019363714120006,NA,NA
即,6.468610935546909,676.4758928573646,256.32881262097953,28,644.5877309070919,29,28,0.9655172413793104,7,2.1318194069769465,NA,NA
却,6.49433113378638,683.4790740734617,217.802084551475,27,661.3817014571999,29,27,0.9310344827586207,7,2.824220430792122,3,mismatch
卵,6.454868921948165,647.538333332708,130.35834425778233,27,635.7903826258951,29,27,0.9310344827586207,7,0.6794824071427308,NA,NA
卷,6.400190488837204,615.7715517238859,148.57326291729686,29,601.9596935534903,29,29,1,8,1.4996925799821155,7,mismatch
卸,6.531113865823114,714.1721428572887,247.2213673318396,28,686.1620784785009,29,28,0.9655172413793104,8,0.8069528728708821,NA,NA
卿,6.627678927647663,786.7072222221223,245.31501498204244,27,755.7260385613662,29,28,0.9655172413793104,10,0.0683714180326432,NA,NA
厂,6.3044898427365705,553.4720370366057,85.42794454956032,27,547.0224495127447,29,27,0.9310344827586207,2,1.0194860106257886,NA,NA
厄,6.428536702780936,628.5900000000356,126.3494283299587,29,619.2671128457515,29,29,1,4,0.8919609530565888,NA,NA
厅,6.412964512420556,630.1139655166661,179.8896196601924,29,609.698463257224,29,29,1,4,1.089544815384165,12,mismatch
历,6.3616793613391085,588.3234482767092,114.78846103970986,29,579.2182568267235,29,29,1,4,0.822246559231238,4,match
厉,6.382617143585987,602.3325862071524,134.13527826808314,29,591.4736552758026,29,29,1,5,0.03702787975577494,NA,NA
压,6.359224256240905,584.983965516958,98.25114089117245,29,577.7979593346311,29,29,1,6,1.5575084049357975,NA,NA
厌,6.374795747515727,590.3984482758243,65.50184745380848,29,586.8655499526188,29,29,1,6,0.47947453410262464,NA,NA
厕,6.483826712508745,678.8099999997344,207.6003181270032,27,654.4706313843599,29,27,0.9310344827586207,8,0.2042285427069596,5,mismatch
厘,6.448736302570222,644.3875862067658,137.42186720117925,29,631.9032535292899,29,29,1,9,1.2928893248696327,9,mismatch
厚,6.381108680901899,593.9177777775482,64.75828749089321,27,590.5821119371822,29,27,0.9310344827586207,9,1.6433282925287256,NA,NA
原,6.371122843543603,596.8131034490563,131.9768336769039,29,584.7140027749195,29,29,1,10,1.946661501308931,NA,NA
厢,6.53952007781998,722.1843103449942,269.45196080570753,29,691.954414065566,29,29,1,11,0.3185432991220218,4,match
厥,6.671950439430272,832.1690740736386,300.26530925849914,27,789.93482292446,29,27,0.9310344827586207,12,0.018908444316327377,2,match
厦,6.5987420510440815,743.7985185180474,126.67378408576953,27,734.1710583927485,29,28,0.9655172413793104,12,0.060055364824844734,3,match
厨,6.39130863186531,609.4801724143646,142.74969317251256,29,596.6368470253497,29,29,1,12,0.7290675486992891,2,mismatch
去,6.293651418555752,546.480535714727,79.58862257414442,28,541.125602160776,29,28,0.9655172413793104,5,3.5558917414647846,NA,NA
县,6.45660851714686,675.2413793105676,269.8474125245338,29,636.8973630926785,29,29,1,7,1.0129721301910448,NA,NA
叁,6.688608086346207,846.3240740735253,307.55043599512163,27,803.2034838142571,29,27,0.9310344827586207,8,0.19816203904607554,2,match
参,6.3671643388252965,590.73326923086,107.32355088112546,26,582.4039847611303,29,27,0.9310344827586207,8,0.6685722691845579,NA,NA
又,6.297734580835564,548.0476785716756,74.76965590138403,28,543.3396228349595,29,29,1,2,3.3264298591224484,NA,NA
叉,6.396867672283747,608.8310714286761,109.02003862896437,28,599.9628113931019,29,28,0.9655172413793104,3,0.456457134303779,NA,NA
及,6.271514711254094,533.1965517238974,65.09880128508514,29,529.278475071794,29,29,1,4,2.1841480810356924,NA,NA
友,6.34203066863782,577.8598275858607,122.14205791501523,29,567.9484562915011,29,29,1,4,1.1903204904261417,NA,NA
双,6.403038898749501,618.7496296298535,161.7129272277985,27,603.6767658132873,29,27,0.9310344827586207,4,2.5463789085248,NA,NA
反,6.280333434814446,539.1550000001213,78.71122652030002,29,533.9666772259208,29,29,1,4,1.60621686104851,NA,NA
发,6.406895949174689,613.8072413791856,100.88652448411808,29,606.0096737190678,29,29,1,5,2.635357763037487,NA,NA
叔,6.454977372502376,646.2625000001095,129.60193543853129,28,635.8593381843194,29,28,0.9655172413793104,8,0.4261695470353263,NA,NA
取,6.421570054696931,622.2823214288275,100.9867818491241,28,614.9678897758989,29,28,0.9655172413793104,8,1.5678189067440456,NA,NA
受,6.391004793101236,604.1256896552973,100.09641140587017,29,596.455593160518,29,29,1,8,2.3812550075309495,NA,NA
变,6.421202734809622,626.0185714289448,128.35328582912558,28,614.7420413217814,29,29,1,8,2.4590536662479856,NA,NA
叙,6.46781263077078,650.9155172415836,97.04085802165801,29,644.0733587830531,29,29,1,9,0.559212156030079,8,mismatch
叛,6.557905109019197,728.3177777778816,209.67478262284112,27,704.7936810714924,29,28,0.9655172413793104,9,0.13455957742262487,9,mismatch
叠,6.491433995936609,674.8049999996407,167.04343166022628,29,659.4683604413882,29,29,1,13,0.9237981936601684,NA,NA
口,6.305348355048882,556.4096296297718,103.61890921049358,27,547.4922766681042,29,28,0.9655172413793104,3,2.1928458366162817,NA,NA
古,6.399253773522565,607.6585714283108,89.63812665247214,28,601.3960926977301,29,29,1,5,1.830453933102918,NA,NA
句,6.424390525785881,633.5271428568242,158.6179368653155,28,616.7048372832986,29,29,1,5,2.528618502305096,NA,NA
另,6.3133158984982325,554.5140740736238,55.71007739356883,27,551.8718692992719,29,29,1,5,2.331049731553002,NA,NA
叨,6.4794904663576824,665.8088461539783,142.3064056625473,26,651.6388297596867,29,26,0.896551724137931,5,0.2589723311093857,2,match
叩,6.690129711496438,834.9157999998516,259.8531708472244,25,804.4265887536087,29,27,0.9310344827586207,5,0.05438320830547721,4,mismatch
只,6.342589863460032,591.4423214277547,225.9182017752072,28,568.266138942511,29,28,0.9655172413793104,5,3.292172129188668,NA,NA
叫,6.44925530634426,650.0214814814927,168.6940719341145,27,632.2312988237082,29,27,0.9310344827586207,5,2.850572662283978,4,mismatch
召,6.361776536444505,582.4808620693652,62.83015096156121,29,579.274545156746,29,29,1,5,0.5774688206852898,2,mismatch
叭,6.67331730311881,839.5445652175923,338.5425928280024,23,791.0152944106254,29,27,0.9310344827586207,5,0.1751347586588441,3,match
叮,6.504439669109722,708.8551785720493,279.5941691174615,28,668.1012067088055,29,28,0.9655172413793104,5,0.5731966208047685,12,match
可,6.328645897368694,565.5855172416958,84.07177021471644,29,560.3972444672085,29,29,1,5,3.084073599564219,NA,NA
台,6.355336265139844,585.1315517244599,116.96538339501124,29,575.5558474903771,29,29,1,5,2.233654671744867,2,mismatch
叱,6.5905766179069785,740.6593749999811,146.2886047025549,24,728.2006423933063,29,25,0.8620689655172413,5,0.03996902686746079,1,mismatch
史,6.299070073434987,551.3364285711068,100.08809382550031,28,544.0657336301052,29,28,0.9655172413793104,5,1.3822584504078503,NA,NA
右,6.397710547976333,612.4741379308277,135.55136430967792,29,600.4687186417904,29,29,1,5,1.5359343272591321,NA,NA
叶,6.417475673289145,633.5310344830284,199.7901078423135,29,612.4551243020577,29,29,1,5,1.5337733289928124,NA,NA
号,6.341283215985561,574.2275862071155,96.27574144348576,29,567.5241003242529,29,29,1,5,2.447685533755882,4,mismatch
司,6.349480286500281,580.3382758617898,103.48383286648443,29,572.1952541266614,29,29,1,5,1.1154773741864688,NA,NA
叹,6.369136964937755,591.1863461541508,100.90208680222956,26,583.5539839557786,29,27,0.9310344827586207,5,0.9101546433702753,NA,NA
叼,6.57734421801622,742.2956000001855,197.66626172827088,25,718.628272677993,29,29,1,5,1.2987548580092898,1,match
叽,6.588608889358027,742.8081481484688,165.78979673205242,27,726.7691500559637,29,27,0.9310344827586207,5,0.17940815151383588,7,match
吁,6.526807166000242,700.1298275866077,165.91095871079673,29,683.2133386030903,29,29,1,6,0.0950297966484517,5,mismatch
吃,6.472220692214502,674.093653845879,227.20299494731154,26,646.918740424001,29,26,0.896551724137931,6,3.214839716934198,6,mismatch
各,6.351605002150375,578.9357142850454,83.47716710158377,28,573.4122988171104,29,28,0.9655172413793104,6,2.644182960013804,NA,NA
吆,6.56602702893078,724.9506000006293,151.95397490130105,25,710.5412680286107,29,26,0.896551724137931,6,0.048674814992229434,1,match
合,6.369116597819579,591.3596428569784,107.82157692195169,28,583.5420987638593,29,28,0.9655172413793104,6,1.5452068830964742,NA,NA
吉,6.385502862333346,598.3246551725057,79.03534203752746,29,593.1829469727891,29,29,1,6,1.395408525506365,NA,NA
吊,6.387335831451335,608.4027586207519,156.61825548423343,29,594.2712300858777,29,29,1,6,1.220991475347527,NA,NA
同,6.473068749663759,668.0256896543801,191.13526868004917,29,647.4675973791016,29,29,1,6,2.445786444185324,NA,NA
名,6.364978904673169,592.5177586209477,129.61107041520805,29,581.1325690062407,29,29,1,6,2.6781510309253513,NA,NA
后,6.318530052984107,561.9279310346861,96.40239194264848,29,554.7569295206149,29,29,1,6,2.9537733145500353,NA,NA
吏,6.492493408397147,679.2785185189032,177.6838399919943,27,660.1673796492205,29,29,1,6,0.05438320830547721,NA,NA
吐,6.4102721008843995,624.3710714284721,164.770431692116,28,608.0591119756399,29,28,0.9655172413793104,6,1.863904900466583,4,mismatch
向,6.318423931009313,561.1805172418556,92.92481864537174,29,554.6980607434145,29,29,1,6,2.5296466776976776,NA,NA
吓,6.439526350313022,643.4279310343841,181.3913095084349,29,626.1101726810566,29,29,1,6,1.8703307362986665,2,match
吕,6.314453558771936,557.9089655171149,81.14444276623848,29,552.5000692724697,29,29,1,6,0.4730195783660997,NA,NA
吗,6.511512327847098,704.9025000000049,246.77301925590854,26,672.8432080573065,29,27,0.9310344827586207,6,3.586223425019345,7,mismatch
君,6.3445478468858845,583.0705357137319,146.35317643470268,28,569.3798846160046,29,28,0.9655172413793104,7,1.5130363841996113,NA,NA
吝,6.607418626257756,764.0129629631532,214.78628083069663,27,740.5688641850812,29,28,0.9655172413793104,7,0.006380458549693074,10,mismatch
吞,6.429745875275675,631.0898275856553,133.2719420460112,29,620.0163665026674,29,29,1,7,0.7993543363611527,1,mismatch
吟,6.468957728352921,655.484259259207,124.61492280586613,27,644.8113080602471,29,28,0.9655172413793104,7,0.2481940379408572,8,mismatch
吠,6.509494563464608,681.4055555562662,121.74224883223883,27,671.4869377741807,29,28,0.9655172413793104,7,0.2481940379408572,NA,NA
吡,6.665290014358437,833.144999999803,327.5470456048075,17,784.6910036426355,29,18,0.6206896551724138,7,0.09760432887441087,12,match
否,6.36886164608946,606.1003448275251,211.9609844151949,29,583.3933426598012,29,29,1,7,0.7284674143082438,NA,NA
吧,6.5400270278844586,742.9212000004435,341.2391802870594,25,692.3052893309972,29,26,0.896551724137931,7,3.6681349972163013,12,mismatch
吨,6.481373652272281,676.8070370374631,235.92619641443608,27,652.8671430334173,29,27,0.9310344827586207,7,0.9587979282827408,9,mismatch
含,6.379553461264838,601.3882758621234,129.98634827570626,29,589.6643408921617,29,29,1,7,1.5993065401024293,8,mismatch
听,6.4852775714417,664.0918000002507,114.06861265707417,25,655.420865107117,29,25,0.8620689655172413,7,2.9164359973403453,8,mismatch
吭,6.548403097465645,741.3227586203811,326.6611607930554,29,698.1284401186725,29,29,1,7,0.11277252110537028,9,mismatch
吮,6.471981682136132,655.2266071421193,112.21694631746962,28,646.7641388015624,29,28,0.9655172413793104,7,0.1553056661596259,1,mismatch
启,6.319979890492389,561.9191379307684,92.18497979632247,29,555.5618202644167,29,29,1,7,0.5502283530550941,NA,NA
吱,6.425957480201906,625.6241071424757,111.53421284553525,28,617.6719431589933,29,29,1,7,0.16202643242117698,9,mismatch
吴,6.360632436311071,590.42655172367,142.57909509849324,29,578.6121760528788,29,29,1,7,1.1484915994053055,NA,NA
吵,6.325063889780835,565.3710344827538,98.38683243682871,29,558.3934881629336,29,29,1,7,1.8381858133548263,9,mismatch
吸,6.443940087851132,640.3739285714568,132.96569575202352,28,628.8797662866215,29,28,0.9655172413793104,7,1.3973472266294,6,mismatch
吹,6.339752681273679,572.8531481477182,85.7798986241245,27,566.6561493728408,29,27,0.9310344827586207,7,1.706432709705534,NA,NA
吻,6.459999697143489,660.9557407414322,205.5200724508509,27,639.0608630257805,29,27,0.9310344827586207,7,1.820202116511591,5,mismatch
吼,6.4829543622443495,663.4981034488862,118.85579841436213,29,653.89995270807,29,29,1,7,1.376073029188866,1,match
吽,6.6688623900387,888.7757142856044,465.7463109124611,7,787.4992277297716,29,7,0.2413793103448276,7,0.021974455110060194,NA,NA
吾,6.308291121523479,553.1010344834934,67.31508949627077,29,549.1057915192861,29,29,1,7,1.789897152408203,2,mismatch
呀,6.533523058696785,713.5568518521144,214.97164547064725,27,687.8171681827743,29,28,0.9655172413793104,7,2.699426294911065,7,mismatch
呃,6.5907331382355645,752.3562500001705,208.72712615700613,28,728.3146295175486,29,29,1,7,2.24570460329683,2,mismatch
呆,6.301221120476077,559.0983333339875,138.53830148631286,27,545.2373042165718,29,28,0.9655172413793104,7,2.000221867797857,NA,NA
呈,6.353857986133649,579.9684482759769,81.48306784107812,29,574.7056439380005,29,29,1,7,1.0031760794927735,5,mismatch
告,6.295659893743479,555.2905357148078,149.50519028702152,28,542.2135316801592,29,29,1,7,1.2352708237841048,NA,NA
呐,6.513321276966651,701.5557692309378,243.0381186219136,26,674.0614487216039,29,28,0.9655172413793104,7,1.2656454977506735,NA,NA
呒,6.8383287701235025,1050.1483333319577,626.5000985719516,3,932.9286928597189,29,3,0.10344827586206896,7,0.07110842178244968,NA,NA
呓,6.75540657749248,884.4199999995304,236.74002696569212,18,858.6888024653264,29,18,0.6206896551724138,7,0.021974455110060194,1,match
呔,6.76965304012687,954.9008333332499,451.8335190933788,12,871.0096361652772,29,14,0.4827586206896552,7,0.0738282844011087,5,mismatch
呕,6.4797591424180325,675.0872413797368,228.76552596241842,29,651.8139330352135,29,29,1,7,0.4664820684959099,14,mismatch
呗,6.526016904603401,704.5068181812899,195.70911835835975,22,682.6736347574308,29,25,0.8620689655172413,7,0.8237024020560482,4,mismatch
员,6.338601841456283,574.5838461544201,103.96265270993608,26,566.0043940183106,29,26,0.896551724137931,7,1.7261670725212872,NA,NA
呛,6.5240524293580835,690.8652083327531,120.80768753904309,24,681.3338557135704,29,24,0.8275862068965517,7,0.634839870519207,10,mismatch
呜,6.48932997240552,676.9007407406043,186.21304912568144,27,658.0822821749924,29,27,0.9310344827586207,7,0.8207923810882037,3,match
呢,6.460624029964167,653.3126923076009,141.82087961386827,26,639.4599742731394,29,28,0.9655172413793104,8,3.207969934155641,6,mismatch
呦,6.64990398196116,835.0742592593575,383.34986113223454,27,772.7101278619798,29,27,0.9310344827586207,8,0.808460806117993,5,mismatch
周,6.427332463470457,643.9790740747163,253.7895976041517,27,618.5218158927892,29,29,1,8,2.2492372586474616,NA,NA
呱,6.557050734875279,723.2764814814822,185.7764358600319,27,704.1917807342442,29,27,0.9310344827586207,8,0.1102866084035656,4,match
呲,6.6496186275114555,813.7915789471706,286.75942303101334,19,772.4896630454671,29,21,0.7241379310344828,9,0.05153839051532738,7,mismatch
味,6.434934976591232,638.943965517163,165.16294023683545,29,623.2420562230247,29,29,1,8,1.630629210801874,7,match
呵,6.474278038452996,661.2751923076921,147.46746137650783,26,648.2510462985291,29,26,0.896551724137931,8,1.2869434866607052,10,mismatch
呶,6.8642318343021635,974.6825000001993,224.42075366370602,4,957.4101076542659,29,5,0.1724137931034483,8,0.009535876619218136,5,mismatch
呷,6.689798773143111,836.311176469098,256.6641619022657,17,804.1604171885728,29,21,0.7241379310344828,8,0.07653121925381198,8,mismatch
呸,6.583315180802202,756.0598275863252,271.08348128237577,29,722.9320112961306,29,29,1,8,0.47626630125851377,3,mismatch
呼,6.3409319565320414,571.6050000000134,69.76574523992012,29,567.3247871262857,29,29,1,8,1.2862790329667324,1,match
命,6.321953496373324,575.7737500001138,200.2868358851476,28,556.6593630422991,29,29,1,8,1.819324100583549,NA,NA
咀,6.5491312354343485,716.4628571421902,170.59138943400995,28,698.6369590564606,29,29,1,8,0.05153839051532738,15,mismatch
咂,6.856306244840041,1001.883055555534,339.29894417008535,18,949.8520587536472,29,19,0.6551724137931034,8,0.10274233614457018,2,match
咋,6.506616213422464,701.8272222219352,268.54662437291023,27,669.5569422523693,29,29,1,8,0.9176157758932043,7,mismatch
和,6.289703112273299,547.9853571433991,108.12200982695853,28,538.9932848371899,29,29,1,8,3.6777935132900748,1,match
咎,6.671010256347429,833.6820370374113,322.39624797233597,27,789.1924885871725,29,28,0.9655172413793104,8,0.05153839051532738,NA,NA
咏,6.426616548378971,638.040862069166,194.0486755862903,29,618.0791652594183,29,29,1,8,0.0683714180326432,2,match
咒,6.452879067187994,641.4296551730107,99.51057697658202,29,634.5265099850787,29,29,1,8,0.5958157626175002,NA,NA
咔,6.749185161861585,886.8590000008966,281.6720545315272,25,853.3631263279399,29,25,0.8620689655172413,8,0.25362873019375426,1,mismatch
咕,6.484562939092257,668.0635714285626,146.6796391981198,28,654.9526474760708,29,28,0.9655172413793104,8,0.3763579298272398,14,mismatch
咖,6.621993780831454,780.088799999558,224.9081494986352,25,751.4418148388964,29,28,0.9655172413793104,8,0.3612177125816818,9,mismatch
咚,6.517769262374299,695.7291379312352,190.29678485675493,29,677.0663421161511,29,29,1,8,0.26073901991041115,3,match
咣,6.787299633481153,936.5627272731706,332.44241423568553,22,886.5164074644822,29,23,0.7931034482758621,9,0.05438320830547721,4,match
咦,6.539124567967669,729.1268965519747,281.9942942569499,29,691.6807933908557,29,29,1,9,0.7648035745633778,4,match
咧,6.681586584801463,834.8467391304689,288.8052791504748,23,797.5835426140882,29,26,0.896551724137931,9,0.6531063399246568,7,mismatch
咨,6.625557572149639,788.1732692305367,266.4151633069749,26,754.1245742126338,29,28,0.9655172413793104,9,0.015820634262069203,6,mismatch
咩,6.549862170159092,725.8201785712321,238.760811418867,28,699.147803744141,29,29,1,9,0.8360834777642523,NA,NA
咪,6.443667411179085,638.726153845797,116.79265147495093,26,628.7083088221204,29,27,0.9310344827586207,9,1.081080743496096,5,mismatch
咬,6.43514676648765,631.030000000532,101.79961460335862,28,623.3740665722911,29,28,0.9655172413793104,9,1.629043454851237,16,mismatch
咯,6.502680783793684,680.0548214284947,146.9904424360341,28,666.9271261459146,29,28,0.9655172413793104,9,1.4644806051082386,18,mismatch
咱,6.551195078453717,734.0933333333405,269.46139080888776,27,700.0803249955126,29,28,0.9655172413793104,9,1.145047159748761,1,mismatch
咳,6.466299602758718,651.9532758621789,118.0412968388699,29,643.0995946013995,29,29,1,9,1.3133926103605165,10,mismatch
咸,6.396425415678204,604.9682142855132,80.97273026615848,28,599.6975325416688,29,28,0.9655172413793104,9,1.1174469670493732,NA,NA
咻,6.73638358234456,872.5940000001012,245.23673147040677,25,842.5083577409064,29,25,0.8620689655172413,9,0.4089349586788017,1,match
咽,6.436195932661358,633.3043103448025,114.33659690712183,29,624.0284327659188,29,29,1,9,0.8251468850792135,7,mismatch
咿,6.740081522694754,888.4022727267796,306.0889798685026,22,845.6296710506549,29,23,0.7931034482758621,9,0.12260902357599006,1,match
哀,6.43779331192615,633.8998275863745,114.63506607460364,29,625.0260394110185,29,29,1,9,0.5941825353510071,4,mismatch
品,6.32211736694666,559.9826785712843,61.48478058374414,28,556.750590605826,29,28,0.9655172413793104,9,1.0352015235287344,NA,NA
哄,6.413697095719346,620.1225000002171,120.2915274843584,28,610.1452818146273,29,29,1,9,1.3519894554356322,7,mismatch
哆,6.602830017025586,759.2705999993451,204.3078732996726,25,737.1784676091644,29,27,0.9310344827586207,9,0.39230995989281875,4,match
哇,6.4939333612586525,690.0076785710551,224.23740986356367,28,661.1186743019748,29,29,1,9,2.3438674626110685,14,mismatch
哈,6.415362192383087,619.6433333328697,106.391437245824,27,611.1620789856363,29,28,0.9655172413793104,9,2.246909784068557,12,mismatch
哉,6.631691508444691,777.227692307532,182.99771104111767,26,758.7645423957181,29,27,0.9310344827586207,9,0.15305227506710875,NA,NA
响,6.4360519245163745,649.410172413665,220.45157930633354,29,623.9385740592476,29,29,1,9,1.7411460814639734,3,mismatch
哎,6.423104989382987,623.0955172418196,99.3095354758217,29,615.9125501312288,29,29,1,9,2.217238037610683,2,mismatch
哏,6.7447354054575355,882.172272726772,272.01648583783845,11,849.5743042109809,29,13,0.4482758620689655,9,0.031044716583705063,16,mismatch
哐,6.708115969133848,868.7664583334761,332.980453544382,24,819.026114461289,29,25,0.8620689655172413,9,0.045792232729559144,5,match
哑,6.43645089033033,639.0046428570865,151.8966607526058,28,624.1875538842221,29,29,1,9,0.8462938042529761,3,match
哒,6.593824489250461,749.0354545460357,182.41645085453575,22,730.5695893270355,29,24,0.8275862068965517,9,0.41393648591729537,3,mismatch
哔,6.658572007083363,821.5631250004659,299.622576429207,24,779.4371113744276,29,26,0.896551724137931,9,0.39748810738143453,2,match
哗,6.609210567595955,773.3419565211861,242.43695284360354,23,741.8971098603417,29,25,0.8620689655172413,9,0.32161914024727495,2,mismatch
哞,6.677524028099226,817.9754545447176,208.6338719129271,22,794.3498871492403,29,24,0.8275862068965517,9,0.12502558681994894,2,mismatch
哟,6.583240933107248,763.1360526311483,271.60729514031135,19,722.878337253295,29,21,0.7241379310344828,9,1.3129217067779504,1,mismatch
哥,6.349855640511224,590.8148275863896,187.86881387600772,29,572.4100702238602,29,29,1,10,2.0387476899107777,NA,NA
哦,6.472504597902914,665.6362500000831,177.48311644577728,28,647.1024304084297,29,29,1,10,3.144805862935792,7,mismatch
哨,6.48030609100492,670.4060344824763,185.0653425360135,29,652.1705392585454,29,29,1,10,0.21221424741994135,16,mismatch
哩,6.64113362413857,804.0290384615497,287.6268233316611,26,765.9628149714439,29,27,0.9310344827586207,10,0.8064513232472621,9,mismatch
哪,6.587536711527046,745.5937500011672,180.49171251501167,20,725.9903418700762,29,23,0.7931034482758621,10,2.7127776144961038,4,mismatch
哭,6.36403040559144,589.5599999998803,120.46847449191507,29,580.5816266236521,29,29,1,10,2.3995197013089578,NA,NA
哲,6.468126409640407,664.4091071427764,182.41202392453934,28,644.2754871036683,29,28,0.9655172413793104,10,0.22963065550850545,4,match
哺,6.497319332531884,677.2998076923878,150.866176663291,26,663.360997219535,29,26,0.896551724137931,10,0.009535876619218136,10,mismatch
哼,6.522071843402585,708.9331481484157,236.97425161650716,27,679.9857509073477,29,29,1,10,1.3728107784773678,2,match
哽,6.457397726420084,644.5967241385893,100.23051249289111,29,637.4002067960806,29,29,1,10,0.18574041757496215,3,mismatch
唆,6.5990462843374065,748.4102083335407,157.29994246321647,24,734.3944516518176,29,27,0.9310344827586207,10,0.08721334123161469,11,mismatch
唇,6.463902371108065,647.6179310342555,92.77414692875371,29,641.5597822795219,29,29,1,10,1.0167033171680542,6,mismatch
唉,6.454294141266741,646.8689655169329,136.60619158467972,29,635.4250476003422,29,29,1,10,2.153535912003968,5,mismatch
唐,6.373223491240335,598.1629310341366,137.788228048004,29,585.9435718917169,29,29,1,10,1.3006911137869765,NA,NA
唔,6.5434156761894124,724.6734615379805,236.67436664237277,26,694.655247818921,29,26,0.896551724137931,10,1.4342877990021163,10,match
唛,7.0304329828483905,1130.51999999979,NA,1,1130.5199999997894,29,2,0.06896551724137931,10,0.15980773296943054,1,match
唠,6.545985544954537,725.9072000007097,232.69382289324028,25,696.4427164389716,29,26,0.896551724137931,10,0.1899392549275125,4,mismatch
唤,6.456344791211474,660.6874999998539,211.93152440866882,26,636.7294188864469,29,28,0.9655172413793104,10,0.41143450216500443,5,match
唧,6.77717078834342,923.2010526315519,308.63169207738713,19,877.5823423236359,29,24,0.8275862068965517,10,0.12017893847111538,2,mismatch
唬,6.692454268808162,846.2459615389807,293.48773516801276,26,806.2986995336356,29,27,0.9310344827586207,11,0.2445492428978945,2,match
售,6.513018085697945,685.2903703701772,134.55711932635094,27,673.8571101541806,29,28,0.9655172413793104,11,1.2112060028575582,NA,NA
唯,6.552917358212827,732.1212500004245,261.17880324094403,28,701.2870980711256,29,29,1,11,1.2288544363887284,15,mismatch
唰,6.754445303359162,885.6249999994058,231.7098086356901,15,857.8637637386713,29,16,0.5517241379310345,11,0.03996902686746079,2,match
唱,6.386551245677999,607.999482758599,170.82187108745907,29,593.8051561946304,29,29,1,11,2.2485293959485864,4,mismatch
唵,6.664711913494574,826.1710000006796,282.74736713631546,15,784.2375041924062,29,16,0.5517241379310345,11,0.009535876619218136,8,mismatch
唾,6.599770113302356,770.8520000002974,284.9078269228909,25,734.9262200590922,29,25,0.8620689655172413,11,0.11524428532725489,4,mismatch
啃,6.621916111049862,785.8497999992176,277.0056075107633,25,751.3834527837722,29,27,0.9310344827586207,11,1.1683825600094535,1,match
啄,6.494888993581867,667.350535714371,91.19420479171029,28,661.7507626505433,29,28,0.9655172413793104,11,0.14160653011825053,3,mismatch
商,6.433766731245927,638.8286206894172,170.10741665193427,29,622.5143817257768,29,29,1,11,0.8985167579698237,NA,NA
啊,6.575757270745747,741.7101923077178,219.02346483618373,26,717.4887519210067,29,26,0.896551724137931,11,3.6249231301313842,3,mismatch
啐,6.71759816000596,923.9930000004858,503.9135760283742,20,826.8292131776732,29,24,0.8275862068965517,11,0.048674814992229434,8,mismatch
啜,6.639734079964375,780.1129545455647,170.94123931699207,22,764.8915659810993,29,22,0.7586206896551724,11,0.05153839051532738,4,mismatch
啤,6.547533040615772,708.9373809517142,133.84875425816892,21,697.521292851876,29,23,0.7931034482758621,11,0.25541724580849623,7,mismatch
啥,6.456970252185034,649.6358620692685,140.2603886591042,29,637.1277928593773,29,29,1,11,1.6753465813420547,1,mismatch
啦,6.400350822493789,618.4401851841592,171.88111207820657,27,602.0562156899414,29,27,0.9310344827586207,11,3.1280788907089847,1,mismatch
啧,6.530277719572097,709.124285715083,210.53873008636086,28,685.5885864240192,29,28,0.9655172413793104,11,0.22198770161943043,4,match
啪,6.57169743419272,738.912692307863,213.48270773702555,26,714.5817697885375,29,28,0.9655172413793104,11,0.3653943768547784,1,mismatch
啫,6.771349869020531,944.67874999952,418.29769296758025,20,872.4888451099033,29,21,0.7241379310344828,11,0.06284511327705045,16,mismatch
啰,6.537440574282664,711.2147999998347,194.2373709881387,25,690.5169874986632,29,25,0.8620689655172413,11,0.7614692579263657,6,mismatch
啵,6.657396175379602,806.6561999995552,239.05415096217993,25,778.5211631138186,29,27,0.9310344827586207,11,0.42254059732272553,3,mismatch
啸,6.560047658351056,727.2924999997917,206.8318577775921,28,706.3053551418249,29,28,0.9655172413793104,11,0.006380458549693074,3,mismatch
啼,6.528682202245127,700.4941071422778,163.0382197862508,28,684.4955901343341,29,28,0.9655172413793104,12,0.3185432991220218,6,mismatch
喀,6.806996544851731,952.9479166663565,334.3139400484622,24,904.1511473858319,29,25,0.8620689655172413,12,0.21023823616172682,2,mismatch
喂,6.459615174834588,649.509799999767,121.58262847438309,25,638.815177106087,29,25,0.8620689655172413,12,2.095940628959843,4,match
喃,6.648479158901127,800.8928846161957,237.60284894348544,26,771.6099366281283,29,28,0.9655172413793104,12,0.16202643242117698,3,match
善,6.359395162636811,582.1724137931476,73.55303587800806,29,577.8967171403525,29,29,1,12,1.3753965550486476,NA,NA
喇,6.641119594122435,798.444347826197,255.33567099054937,23,765.9520685761769,29,24,0.8275862068965517,12,0.535471346930316,2,mismatch
喉,6.563440642780779,735.9705769231421,238.31013605104152,26,708.7059084314188,29,27,0.9310344827586207,12,0.36677771960758043,2,match
喊,6.583181037976753,737.7422000004836,155.58887710664894,25,722.8350416575636,29,26,0.896551724137931,12,1.8331094841822912,6,mismatch
喋,6.582303591121392,749.9955999994326,248.56457905941582,25,722.2010705019902,29,27,0.9310344827586207,12,0.048674814992229434,5,mismatch
喏,6.622926194680687,765.3244444445485,151.57966553175217,18,752.1427963455915,29,20,0.6896551724137931,12,0.22773248984662614,4,mismatch
喔,6.574741215359939,748.745555554996,249.71086254265506,27,716.7601138413687,29,28,0.9655172413793104,12,2.1037175374371206,5,mismatch
喘,6.465837717859914,658.4017241380905,158.98210624437817,29,642.8026251983473,29,29,1,12,1.0173255545617224,6,mismatch
喜,6.434063291499614,633.5334482753353,132.28575561124228,29,622.6990221258937,29,29,1,12,2.079232272651494,NA,NA
喝,6.491698846193615,668.0037037031607,109.5809696031949,27,659.6430439376015,29,28,0.9655172413793104,12,2.7996618774036426,9,mismatch
喧,6.612123417161132,769.0103703700502,225.0598325574965,27,744.0612949768386,29,27,0.9310344827586207,12,0.02804229509074957,5,match
喳,6.599965725070371,786.698095238205,338.9146019028027,21,735.0699943378702,29,23,0.7931034482758621,12,0.05438320830547721,4,mismatch
喵,6.601185898204605,755.9816666670342,192.8843139831826,27,735.9674544137331,29,28,0.9655172413793104,12,0.8944323759865407,6,mismatch
喷,6.662724076493363,817.145999999826,264.73381365337275,25,782.6801162933148,29,25,0.8620689655172413,12,0.9234098273492528,2,mismatch
喻,6.528329640754212,699.9368000001832,162.11625868807104,25,684.254305884818,29,26,0.896551724137931,12,0.377706841369624,11,mismatch
喽,6.583157692831875,747.9068749998557,193.3942783082172,24,722.8181671657629,29,25,0.8620689655172413,12,1.0884975548633027,13,match
嗄,6.65347818633703,794.4239999989746,185.94601344981933,5,775.4768933294466,29,5,0.1724137931034483,13,0.0950297966484517,3,mismatch
嗅,6.533860083862353,703.2150000004913,165.97163832876228,28,688.049018945338,29,29,1,13,0.5392141473498314,3,mismatch
嗌,6.756009545720763,935.0087500011135,469.0923816536863,4,859.2067206596117,29,4,0.13793103448275862,13,0.018908444316327377,4,mismatch
嗐,6.763545776425099,931.9904545453874,390.9109181350565,11,865.7063613630305,29,13,0.4482758620689655,13,0.006380458549693074,5,match
嗑,6.541406280677016,707.620892856848,158.82533995288645,28,693.2608121368813,29,29,1,13,0.6720054450229519,3,mismatch
嗒,6.786589022503467,912.9282352939424,235.28171667180982,17,885.8866629516212,29,20,0.6896551724137931,13,0.42254059732272553,5,mismatch
嗓,6.670747383293511,802.924090908852,173.13957771327847,22,788.9850584126646,29,23,0.7931034482758621,13,0.02804229509074957,1,mismatch
嗔,6.629505264243522,806.8180434776513,356.7654919228494,23,757.1075098137945,29,25,0.8620689655172413,13,0.009535876619218136,6,mismatch
嗖,6.600204004490489,754.5344642856548,186.1780030882235,28,735.2451672590892,29,29,1,13,0.12502558681994894,8,mismatch
嗜,6.738754284980783,891.9089130443793,320.9869924829878,23,844.5080639434582,29,25,0.8620689655172413,13,0.7296668549325902,NA,NA
嗝,6.544143047143916,716.6935185189784,196.10801819334452,27,695.1607036742471,29,28,0.9655172413793104,13,0.15980773296943054,4,match
嗟,6.665978381258691,804.0003846157831,180.82023862323484,26,785.231344911656,29,27,0.9310344827586207,13,0.012710712741786966,4,mismatch
嗡,6.613347773754761,773.7073214283874,247.68422404301612,28,744.9728492492774,29,28,0.9655172413793104,13,0.05153839051532738,1,match
嗣,6.82306399368371,959.5407142854363,304.388987101032,21,918.7958864210314,29,23,0.7931034482758621,13,0.08457627793433102,5,mismatch
嗤,6.60712830576473,763.9653846149898,216.94508139539553,26,740.3538930740809,29,27,0.9310344827586207,13,0.0792174357465669,1,match
嗨,6.587882704102535,743.4850000002261,179.64623291379178,24,726.2415725977168,29,24,0.8275862068965517,13,2.3718125467051423,1,mismatch
嗬,6.930788463568878,1069.3037500000498,360.4278397542878,8,1023.3004967878837,29,9,0.3103448275862069,13,0.21023823616172682,1,mismatch
嗯,6.446149760689845,639.8929310343444,123.25881353981563,29,630.2709212576339,29,29,1,13,2.475130380247703,2,match
嗲,6.76384346377962,904.6892592588301,292.06103655599725,27,865.9641095618226,29,27,0.9310344827586207,13,0.38836766715730114,1,mismatch
嗳,6.835689164690409,1000.2868750002677,418.4045678596005,8,930.4693764537751,29,9,0.3103448275862069,13,0.15980773296943054,2,match
嗷,6.5443816753132404,712.8275000004795,174.20638142774646,24,695.3266083943334,29,27,0.9310344827586207,14,0.7106588373015291,7,match
嗽,6.7517014364391645,915.2945833335094,367.66063055332637,24,855.5131261286645,29,26,0.896551724137931,14,0.018908444316327377,2,match
嘀,6.625955025767108,794.3796153849977,281.7925700617621,26,754.4243633248636,29,27,0.9310344827586207,14,0.1664301138432827,4,mismatch
嘁,6.673229703060158,808.8258823525431,180.05574004274132,17,790.9460044593864,29,19,0.6551724137931034,14,0.0792174357465669,2,match
嘈,6.759441625302009,906.3289583333959,314.0661466773022,24,862.1606526669483,29,28,0.9655172413793104,14,0.0950297966484517,5,match
嘉,6.445566612365357,638.1309259251987,108.59501928508377,27,629.9034869706861,29,28,0.9655172413793104,14,0.29143545492712203,9,match
嘎,6.5643502571373595,725.8414814817975,169.15187351434415,27,709.3508507802628,29,28,0.9655172413793104,14,0.5714642539956033,1,mismatch
嘘,6.44495415331773,641.8738888889665,137.95794969961676,27,629.5178149971597,29,28,0.9655172413793104,14,1.302620938814304,3,match
嘚,6.811485922851051,947.1373076925563,299.5178556493298,13,908.2193486689183,29,13,0.4482758620689655,14,0.05153839051532738,1,mismatch
嘛,6.744208096967898,903.5361904766594,362.1477331793684,21,849.1264345609047,29,24,0.8275862068965517,14,2.479645407736934,6,mismatch
嘞,6.695740232715947,847.1285416668613,292.0363766218985,24,808.9525257598921,29,26,0.896551724137931,14,0.441585173750801,1,mismatch
嘟,6.666137385496301,846.6733333326299,380.1875409788785,21,785.3562099497727,29,23,0.7931034482758621,13,0.327726651642141,1,mismatch
嘣,6.64661225518913,779.832857143138,125.41768374097502,14,770.1707589942572,29,14,0.4827586206896552,14,0.34695899867352903,3,match
嘤,6.616129905391517,771.8215384615223,213.42710870318348,26,747.0483475977665,29,28,0.9655172413793104,14,0.12981874384893433,5,match
嘬,6.839291769486479,958.3489285704849,227.9587327033529,14,933.8275353195405,29,14,0.4827586206896552,15,0.03702787975577494,2,mismatch
嘭,6.6579605384621345,836.5765217386247,375.1357692811499,23,778.960655722287,29,24,0.8275862068965517,15,0.1751347586588441,3,mismatch
嘱,6.586195499096751,746.3919999997386,191.0252917485165,25,725.0172872816053,29,26,0.896551724137931,15,0.018908444316327377,2,mismatch
嘲,6.522090676553211,713.1225862071385,279.07856141334634,29,679.9985573020105,29,29,1,15,0.08457627793433102,2,match
嘴,6.413013535925408,617.1099999995533,108.27874427810853,29,609.7283535454532,29,29,1,15,2.1103600458347973,1,match
嘶,6.677288386282855,824.6773076921157,248.3803094539592,26,794.1627271512256,29,29,1,15,0.11277252110537028,3,match
嘻,6.578041286091105,751.2620689649574,260.25229064301027,29,719.1293801373017,29,29,1,15,0.8535704593169791,5,mismatch
嘿,6.535026862295128,704.6714814817692,161.57215299864575,27,688.852288228844,29,27,0.9310344827586207,15,2.5073666778053703,2,match
噌,6.8836810473321774,1028.826000000123,377.8443903640179,5,976.2132411486075,29,6,0.20689655172413793,15,0.045792232729559144,7,mismatch
噎,6.5415333824976925,708.6489583333782,164.18752170911833,24,693.3489324483148,29,26,0.896551724137931,15,0.2589723311093857,1,mismatch
噔,6.7768972623169255,920.4171428568897,300.7593879964674,14,877.3423335384396,29,17,0.5862068965517241,15,0.02804229509074957,7,match
噗,6.647916690094395,810.6001851853034,280.1339696412174,27,771.1760521424942,29,29,1,15,0.796796280056657,3,mismatch
噘,6.74227671343337,897.0564999995979,343.94699608733305,10,847.488028451057,29,11,0.3793103448275862,15,0.05720951250779035,5,mismatch
噙,6.6717763323083625,809.153214286595,187.79208146275388,14,789.797301618011,29,15,0.5172413793103449,16,0.12981874384893433,2,match
噜,6.702717547994498,853.5173684215134,294.96474457605143,19,814.6165795434583,29,20,0.6896551724137931,16,0.22963065550850545,3,mismatch
噢,6.648672006903696,799.2466000002502,225.6303687709341,25,771.7587544123141,29,27,0.9310344827586207,16,2.4887252452480215,3,mismatch
器,6.408430841122162,619.3305357146307,139.2531197558179,28,606.9405472997787,29,29,1,16,1.4430798409029861,NA,NA
噩,6.524418806931442,697.3903703698534,162.5563865182444,27,681.5835268924416,29,28,0.9655172413793104,16,0.031044716583705063,NA,NA
噪,6.54927798170418,729.5284615384815,244.53246924945748,26,698.7394889469241,29,27,0.9310344827586207,16,0.0924399113311414,6,match
噫,6.653004670207613,785.5408823529654,139.3838947868282,17,775.1097794364993,29,20,0.6896551724137931,16,0.03996902686746079,4,mismatch
噬,6.714462134115386,858.8633999991657,260.66435497247915,25,824.24031690268,29,25,0.8620689655172413,16,0.08983448870862953,1,match
噱,6.644656889846673,787.562499999207,185.78301369465197,20,768.66626518124,29,23,0.7931034482758621,16,0.012710712741786966,1,mismatch
噻,6.8236869433367495,950.0113636374864,252.57118895640318,11,919.3684283135628,29,15,0.5172413793103449,16,0.24637546400350846,2,mismatch
嚄,6.721781059334042,830.295000003302,NA,1,830.2950000033018,29,2,0.06896551724137931,17,0.015820634262069203,3,mismatch
嚎,6.587684557169306,769.2371052625731,330.23493208215154,19,726.0976843133049,29,21,0.7241379310344828,17,0.21418130866382065,2,match
嚏,6.701680959243215,836.6849999996458,219.94953280488195,22,813.7725946686821,29,22,0.7586206896551724,17,0.03702787975577494,1,mismatch
嚓,6.763472834273358,878.3388888885581,158.0858492594817,9,865.6432171812211,29,9,0.3103448275862069,17,0.41018652865710886,3,mismatch
嚣,6.595078117620518,745.3123809524532,163.26062210899158,21,731.4860264062559,29,22,0.7586206896551724,18,0.0792174357465669,NA,NA
嚯,6.7111352891914935,868.2654761898948,318.0399906296585,21,821.5027534378056,29,21,0.7241379310344828,19,0.19816203904607554,2,match
嚷,6.712439070050498,843.8812499999815,205.94297387371273,28,822.5745115203753,29,28,0.9655172413793104,20,0.2589723311093857,4,mismatch
嚼,6.616926219608093,770.3266666673815,205.67785274559444,27,747.6434697380904,29,28,0.9655172413793104,20,0.9093634421947274,1,mismatch
囊,6.651748491593655,812.2793103446605,299.0409319114268,29,774.1367144077977,29,29,1,22,0.342600310415772,NA,NA
囔,6.807323622646775,933.5538888891701,234.86620123105595,18,904.4469235177717,29,22,0.7586206896551724,25,0.006380458549693074,1,mismatch
囚,6.391395265562954,607.667586206927,130.0041030095426,29,596.6885381206213,29,29,1,5,0.20825319307268497,NA,NA
四,6.3447832114410785,579.86913793047,125.38261193175454,29,569.51391223134,29,29,1,5,2.571270124236493,NA,NA
回,6.339243508997956,579.1298275860978,144.91191896350827,29,566.3676972138653,29,29,1,6,2.7653105426227595,NA,NA
因,6.346504565336987,581.169137931778,119.59575783079804,29,570.4950914590024,29,29,1,6,2.1104348179821746,NA,NA
囡,6.660386023798507,812.0326000000446,273.54749779186926,25,780.8523065286203,29,26,0.896551724137931,6,0.07653121925381198,NA,NA
团,6.410477922129259,634.5617241382174,219.77225638653624,29,608.1842763393159,29,29,1,6,1.6334088622482474,NA,NA
囤,6.585428022012896,745.8139285710248,196.12022935793922,28,724.4610665988339,29,28,0.9655172413793104,7,0.16423385469261065,9,match
园,6.354852463888322,582.0224137931524,95.91862682720368,29,575.2774601985307,29,29,1,7,0.8968898144283989,7,match
困,6.335070277130023,574.2605172418206,121.8732948260077,29,564.0090385288515,29,29,1,7,2.14133938272378,NA,NA
围,6.365988428235589,589.3644827581162,98.37753875207787,29,581.7195322543071,29,29,1,7,1.2832718223524653,7,match
固,6.388906799112072,604.595344827693,118.00718976194685,29,595.2055446668926,29,29,1,8,0.3307383581788762,14,mismatch
国,6.432163191569386,648.4092592598893,247.9318483927034,27,621.5169551357449,29,27,0.9310344827586207,8,2.9354142503409597,NA,NA
图,6.496357314272686,705.1253703709615,307.14970406888085,27,662.7231386927384,29,27,0.9310344827586207,8,2.275486419415055,NA,NA
圆,6.515818711376399,707.1421428570341,274.84353520373486,28,675.7469768498207,29,29,1,10,1.5271295942330547,4,match
圈,6.521005264367733,714.3298148152871,262.3305806873876,27,679.2608789967405,29,29,1,11,1.781460241282487,7,mismatch
土,6.349072177586205,580.7516071425115,110.64621960617916,28,571.9617837867642,29,29,1,3,1.334761267509755,NA,NA
圣,6.369881200983206,599.618620690154,160.9568598748516,29,583.988447516773,29,29,1,5,1.3113532780411492,NA,NA
在,6.36517474885269,599.3592857141971,185.03249307551192,28,581.2463915827913,29,28,0.9655172413793104,6,4.022897390962111,5,mismatch
圭,6.6033170066060745,775.7560869560211,281.92867634850234,23,737.5375532702413,29,25,0.8620689655172413,6,0.23340227781189518,NA,NA
地,6.5159319214208145,712.0542857146256,253.9940194049071,21,675.8234825256072,29,21,0.7241379310344828,6,2.9128741247902417,8,mismatch
场,6.4587799293203805,659.5244642856333,187.46719861902108,28,638.2818323629102,29,28,0.9655172413793104,6,2.5183763915123105,NA,NA
址,6.599428269938633,766.0010416668889,240.65822907991668,24,734.6750333436405,29,26,0.896551724137931,7,0.19200959265367015,6,match
坂,6.666782154343852,805.0233333326667,185.7359964862747,21,785.8627464501087,29,21,0.7241379310344828,7,0.17940815151383588,9,mismatch
均,6.497644276695241,692.9026785714551,237.1210456608461,28,663.5765875292898,29,29,1,7,1.4241021462854728,3,mismatch
坊,6.491056775717307,673.9001785714499,161.42063529489022,28,659.2196425554963,29,29,1,7,0.22198770161943043,12,match
坎,6.463195684765617,650.0185185185476,112.37254890632627,27,641.1065609050606,29,27,0.9310344827586207,7,0.42737248954948226,5,mismatch
坏,6.598796849711214,756.4218000000295,200.89077013867134,25,734.211291090535,29,26,0.896551724137931,7,2.226814808465897,NA,NA
坐,6.332138753706628,578.2980357148306,154.1311315582441,28,562.3580539537313,29,28,0.9655172413793104,7,2.547548518095499,NA,NA
坑,6.4083894731477296,620.5400000004669,146.36316872781754,26,606.9154399180602,29,26,0.896551724137931,7,1.938986291003253,9,mismatch
块,6.571673450710474,745.8576086955075,236.53792208930926,23,714.5646318348629,29,23,0.7931034482758621,7,2.3384668527989723,7,mismatch
坚,6.3799912932637195,602.3413793105709,141.26443767512862,29,589.922571335854,29,29,1,7,0.3612177125816818,NA,NA
坛,6.4686717083508976,654.6069230768838,118.5703442017266,26,644.6269055012784,29,26,0.896551724137931,7,0.1102866084035656,NA,NA
坝,6.576877768029807,735.1473913045775,168.48174817420326,23,718.2931466957975,29,24,0.8275862068965517,7,0.3091615579046436,NA,NA
坟,6.466086327109542,668.59222222225,244.74066075310157,27,642.962451743012,29,27,0.9310344827586207,7,0.7409150764812825,10,mismatch
坠,6.52126559733906,702.7399999992908,202.43294790154425,27,679.4377360195342,29,28,0.9655172413793104,7,0.7248409041250767,1,mismatch
坡,6.599847885763489,761.7124999995056,223.43077299947987,28,734.9833793026556,29,29,1,8,0.5974428709005748,11,mismatch
坤,6.628749871620968,793.6449999996962,279.2200540287337,24,756.5358123416125,29,27,0.9310344827586207,8,0.08192310435106014,8,mismatch
坦,6.555662205770402,739.4912499989382,264.0730205553972,24,703.2146684826702,29,26,0.896551724137931,8,0.39619934709573634,8,mismatch
坨,6.583565494982533,747.5128846150744,213.39111320383944,26,723.1129940803067,29,26,0.896551724137931,8,0.48583495268322063,10,mismatch
坪,6.65625277169401,827.533260869537,341.38324124942017,23,777.6315078610766,29,25,0.8620689655172413,8,0.2589723311093857,7,match
坯,6.785559742608166,935.4930000002817,340.7193893366942,20,884.975306720712,29,22,0.7586206896551724,8,0.018908444316327377,3,match
坳,6.769916546086651,924.6058333326911,351.7836949843233,18,871.2391826375372,29,22,0.7586206896551724,8,0.012710712741786966,5,mismatch
垂,6.428220043023241,627.9425862065349,108.80618401438342,29,619.0710469165823,29,29,1,9,0.34551095769694995,NA,NA
垃,6.482079220376271,670.1313461538657,164.29403169661464,26,653.3279478111443,29,27,0.9310344827586207,8,0.02804229509074957,8,mismatch
型,6.5075285819558175,698.3230769234685,235.67665969318654,26,670.1681036976095,29,28,0.9655172413793104,9,1.4981630064759754,2,match
垢,6.627151302067708,775.8900000003106,208.35775638121603,26,755.3274033462994,29,26,0.896551724137931,9,0.0683714180326432,3,mismatch
垦,6.682438439321026,845.94592592581,327.8386319635121,27,798.2632572274729,29,27,0.9310344827586207,9,0.025018972282759518,16,mismatch
垫,6.589896635274888,762.8197916663418,289.3601520760544,24,727.7056469170382,29,26,0.896551724137931,9,0.5982650975062869,4,mismatch
垮,6.605315702059818,777.5280434784089,282.3202407121505,23,739.0131403583093,29,24,0.8275862068965517,9,0.7993543363611527,5,mismatch
埃,6.7735995898665164,925.9968181815879,342.77128580217516,22,874.4539110487336,29,25,0.8620689655172413,10,0.531708776810456,5,mismatch
埋,6.514596805790942,700.8924074068634,219.16406578094833,27,674.9217821021592,29,27,0.9310344827586207,10,1.6117615327342698,9,mismatch
城,6.447405425340027,640.2964814808385,116.98582944137473,27,631.0628272536283,29,28,0.9655172413793104,9,1.926279150281942,4,match
埔,6.671701486933419,816.53533333415,235.07755889318466,15,789.7381911549418,29,17,0.5862068965517241,10,0.018908444316327377,10,mismatch
域,6.553562001186601,709.6967241378965,114.10023712179648,29,701.7393236178455,29,29,1,11,0.18152918210650335,3,mismatch
埠,6.734223880046741,852.4541666665979,147.8305831751554,12,840.6907539527901,29,16,0.5517241379310345,11,0.009535876619218136,1,mismatch
埸,6.728604689353532,835.979999999981,NA,1,835.9799999999807,29,3,0.10344827586206896,11,0.012710712741786966,7,match
培,6.476294030201624,661.1355357143548,132.1027059280307,28,649.5592332629054,29,28,0.9655172413793104,11,0.23340227781189518,8,mismatch
基,6.412662673065421,616.8867241382491,101.04705040387236,29,609.5144600373512,29,29,1,11,1.2301831540404562,13,mismatch
堂,6.389657532556918,603.1893103450499,101.60294576870332,29,595.6525531469454,29,29,1,11,0.992827350690238,12,mismatch
堆,6.557671481962016,725.6348000000683,190.3691824424795,25,704.6290414307501,29,25,0.8620689655172413,11,1.924175870301921,15,mismatch
堇,6.791600347923915,919.0368181817677,245.33719041644335,11,890.3372717155751,29,13,0.4482758620689655,11,0.006380458549693074,NA,NA
堑,6.7166181283832795,865.3269230769506,288.33638244238495,26,826.0192913415334,29,29,1,11,0.025018972282759518,5,mismatch
堕,6.6050911926867375,770.8695833329067,259.9955130046136,24,738.8472436048539,29,27,0.9310344827586207,11,0.12017893847111538,2,match
堡,6.503789864107492,689.1021153844553,192.59618349358826,26,667.6672122238547,29,26,0.896551724137931,12,0.531708776810456,5,match
堤,6.563066941253489,725.824629629476,186.098651985859,27,708.4411134312686,29,27,0.9310344827586207,12,0.35272263746201815,5,mismatch
堪,6.4708110714241744,655.97625000007,119.17117988723433,24,646.0074727396768,29,25,0.8620689655172413,12,1.0732673295541073,5,mismatch
堵,6.487824777322661,677.9794827589188,201.99174833139068,29,657.0924850654917,29,29,1,11,1.646682056052068,16,mismatch
塌,6.566046975343961,745.1670370367048,273.4256630525787,27,710.5554409196741,29,28,0.9655172413793104,13,0.47947453410262464,NA,NA
